Packet #, Month, Day, Year, Hour, Minute, Second, MS, ACC X, ACC Y, ACC Z, GYR X, GYR Y, GYR Z
1,7,28,2023,11,5,35,715,-2714,-421,3262,75,2481,867,
2,7,28,2023,11,5,35,725,-2867,-334,2898,-16,2833,790,
3,7,28,2023,11,5,35,735,-3312,-224,3213,-12,3327,820,
4,7,28,2023,11,5,35,745,-3497,-142,2726,-17,3785,794,
5,7,28,2023,11,5,35,755,-2415,-592,3677,52,4338,821,
6,7,28,2023,11,5,35,765,-2809,-296,2720,52,4989,949,
7,7,28,2023,11,5,35,775,-981,-361,2651,-19,5952,1237,
8,7,28,2023,11,5,35,785,-2362,-2518,4528,224,7554,1796,
9,7,28,2023,11,5,35,795,-4925,-938,1956,442,8562,1965,
10,7,28,2023,11,5,35,805,-2450,-3136,5911,819,9952,2795,
11,7,28,2023,11,5,35,815,-4132,-2599,4580,605,11645,3704,
12,7,28,2023,11,5,35,825,-734,-2491,4480,889,13466,4696,
13,7,28,2023,11,5,35,835,-6397,-2360,4577,897,15679,5695,
14,7,28,2023,11,5,35,845,-7200,-1934,5541,1006,16492,6669,
15,7,28,2023,11,5,35,855,-9320,3,6540,289,16524,6992,
16,7,28,2023,11,5,35,865,-9821,-2026,6645,-931,15492,6738,
17,7,28,2023,11,5,35,875,-10766,-4071,8528,-512,13855,6461,
18,7,28,2023,11,5,35,885,-8420,-3913,7492,-275,11437,5814,
19,7,28,2023,11,5,35,895,-8131,-2036,7521,-29,8921,5753,
20,7,28,2023,11,5,35,905,-896,-3031,9122,-698,6197,4424,
21,7,28,2023,11,5,35,915,-9635,-5724,13936,-3236,3071,1715,
22,7,28,2023,11,5,35,925,-5628,-8214,10339,-2359,-2740,844,
23,7,28,2023,11,5,35,935,4933,-4696,4731,291,-5813,1098,
24,7,28,2023,11,5,35,945,1985,-1990,5092,1665,-4989,1115,
25,7,28,2023,11,5,35,955,1035,-1239,5416,635,-4546,335,
26,7,28,2023,11,5,35,965,284,-2442,5205,-1331,-4905,-984,
27,7,28,2023,11,5,35,975,-713,-3615,4923,-2127,-5893,-2105,
28,7,28,2023,11,5,35,985,-729,-3782,4434,-1530,-7269,-2894,
29,7,28,2023,11,5,35,995,-624,-2805,4202,-483,-8498,-3570,
30,7,28,2023,11,5,36,5,-636,-1556,4011,-45,-9362,-4267,
31,7,28,2023,11,5,36,15,-825,-791,3763,-439,-9880,-4928,
32,7,28,2023,11,5,36,25,-972,-764,3453,-1149,-10242,-5392,
33,7,28,2023,11,5,36,35,-1305,-937,3415,-1544,-10507,-5531,
34,7,28,2023,11,5,36,45,-1996,-972,3783,-1549,-10745,-5449,
35,7,28,2023,11,5,36,55,-2650,-1020,4214,-1420,-11123,-5329,
36,7,28,2023,11,5,36,65,-3097,-1017,4450,-1277,-11624,-5213,
37,7,28,2023,11,5,36,75,-3323,-906,4668,-1211,-12033,-5121,
38,7,28,2023,11,5,36,85,-3922,-813,4965,-1316,-12204,-5061,
39,7,28,2023,11,5,36,95,-4841,-977,5169,-1591,-12233,-5007,
40,7,28,2023,11,5,36,105,-6304,-1821,5162,-1867,-12195,-4864,
41,7,28,2023,11,5,36,115,-7669,-2584,4808,-1722,-12133,-4730,
42,7,28,2023,11,5,36,125,-8890,-2223,4688,-1234,-11752,-4871,
43,7,28,2023,11,5,36,135,-10433,-984,4478,-1170,-10948,-5440,
44,7,28,2023,11,5,36,145,-12401,-527,3390,-1708,-10048,-6112,
45,7,28,2023,11,5,36,155,-14063,-762,1413,-1858,-9408,-6313,
46,7,28,2023,11,5,36,165,-14191,-147,-1151,-981,-8897,-5916,
47,7,28,2023,11,5,36,175,-12990,1827,-3457,25,-7908,-5108,
48,7,28,2023,11,5,36,185,-12065,3838,-4559,-146,-6155,-4243,
49,7,28,2023,11,5,36,195,-11907,4044,-5126,-1268,-4223,-3564,
50,7,28,2023,11,5,36,205,-12087,3510,-6122,-1514,-2727,-2695,
51,7,28,2023,11,5,36,215,-12080,4197,-6827,-377,-1520,-1509,
52,7,28,2023,11,5,36,225,-12570,4758,-7057,781,-237,-479,
53,7,28,2023,11,5,36,235,-12918,4502,-8416,1588,1160,418,
54,7,28,2023,11,5,36,245,-11449,6725,-13695,3385,3266,1710,
55,7,28,2023,11,5,36,255,-4849,6460,-4200,2576,8953,1861,
56,7,28,2023,11,5,36,265,-12629,1184,16033,939,11905,2358,
57,7,28,2023,11,5,36,275,-10430,-863,10781,951,5545,3670,
58,7,28,2023,11,5,36,285,-7790,-8563,4067,2304,2480,3582,
59,7,28,2023,11,5,36,295,-8572,-1011,10861,3962,1799,1655,
60,7,28,2023,11,5,36,305,-1373,3140,7056,2162,34,1069,
61,7,28,2023,11,5,36,315,-4203,-1206,4265,893,155,963,
62,7,28,2023,11,5,36,325,-2060,-449,3338,573,192,386,
63,7,28,2023,11,5,36,335,-3131,-682,2206,484,131,392,
64,7,28,2023,11,5,36,345,-2612,-541,3104,558,-35,466,
65,7,28,2023,11,5,36,355,-2563,-394,3586,454,-30,382,
66,7,28,2023,11,5,36,365,-2314,-760,3920,315,-18,205,
67,7,28,2023,11,5,36,375,-1357,-1031,4460,234,21,117,
68,7,28,2023,11,5,36,385,-2591,-676,4226,130,194,67,
69,7,28,2023,11,5,36,395,-1568,-873,3595,-15,281,-62,
70,7,28,2023,11,5,36,405,-864,-1355,5006,31,594,80,
71,7,28,2023,11,5,36,415,-3173,-445,3322,-54,712,-3,
72,7,28,2023,11,5,36,425,-877,-1015,4141,-41,768,-40,
73,7,28,2023,11,5,36,435,-3033,-271,3191,-54,1084,-94,
74,7,28,2023,11,5,36,445,-2485,-606,3488,-185,1349,-162,
75,7,28,2023,11,5,36,455,-2145,-872,3172,-163,1505,-136,
76,7,28,2023,11,5,36,465,-2956,-1028,2329,-181,1661,-175,
77,7,28,2023,11,5,36,475,-687,-1169,3791,67,1799,-18,
78,7,28,2023,11,5,36,485,-3276,-1199,3176,-17,2074,220,
79,7,28,2023,11,5,36,495,-1403,-1662,3193,-352,2076,332,
80,7,28,2023,11,5,36,505,-2547,-898,3211,-202,2321,812,
81,7,28,2023,11,5,36,515,-2285,-808,3544,-250,2451,917,
82,7,28,2023,11,5,36,525,-1905,-695,3134,-119,2503,973,
83,7,28,2023,11,5,36,535,-3065,-252,2500,-113,2643,1011,
84,7,28,2023,11,5,36,545,-2867,-225,2635,-132,2756,1011,
85,7,28,2023,11,5,36,555,-3254,-564,2542,-93,2823,1061,
86,7,28,2023,11,5,36,575,-2508,-1282,2989,15,2759,1170,
87,7,28,2023,11,5,36,585,-3056,-924,2624,139,2716,1422,
88,7,28,2023,11,5,36,595,-2257,-599,1920,90,2558,1381,
89,7,28,2023,11,5,36,605,-2763,-1546,3776,209,2811,1792,
90,7,28,2023,11,5,36,615,-3295,-467,2545,186,2762,1835,
91,7,28,2023,11,5,36,625,-1793,-404,2852,188,2878,1881,
92,7,28,2023,11,5,36,635,-4041,-94,2470,129,3277,2074,
93,7,28,2023,11,5,36,645,-4031,983,1981,96,3543,1906,
94,7,28,2023,11,5,36,655,-2180,428,3150,146,3946,1592,
95,7,28,2023,11,5,36,665,-3696,10,3439,363,4571,1420,
96,7,28,2023,11,5,36,675,-3335,495,2176,289,5044,1085,
97,7,28,2023,11,5,36,685,-1385,-146,3548,374,5742,979,
98,7,28,2023,11,5,36,695,-3836,-401,2865,509,6727,1138,
99,7,28,2023,11,5,36,705,-2420,-379,3330,587,7647,1212,
100,7,28,2023,11,5,36,715,-2020,-655,2823,696,8846,1464,
101,7,28,2023,11,5,36,725,-1938,-76,3061,711,10628,1951,
102,7,28,2023,11,5,36,735,-3628,-1547,2817,672,12779,2613,
103,7,28,2023,11,5,36,745,-6175,-2088,3862,719,14712,2971,
104,7,28,2023,11,5,36,755,-7395,-2343,5663,754,16013,3513,
105,7,28,2023,11,5,36,765,-7246,-2222,6365,705,16693,4172,
106,7,28,2023,11,5,36,775,-8738,-1496,5796,440,16836,5052,
107,7,28,2023,11,5,36,785,-14411,-3256,9986,736,16846,6055,
108,7,28,2023,11,5,36,795,-9153,-4273,7140,965,14897,5764,
109,7,28,2023,11,5,36,805,-11752,-4953,10116,1973,13513,6115,
110,7,28,2023,11,5,36,815,-8432,-2765,8625,1849,11421,5784,
111,7,28,2023,11,5,36,825,-4497,-2758,7083,-39,9239,4585,
112,7,28,2023,11,5,36,835,-11675,-4036,13601,-3681,7295,1542,
113,7,28,2023,11,5,36,845,-17538,-10989,16875,-3900,-196,-260,
114,7,28,2023,11,5,36,855,2777,-6635,6240,869,-8719,-173,
115,7,28,2023,11,5,36,865,1836,-842,5204,3801,-9038,968,
116,7,28,2023,11,5,36,875,1240,1881,5747,2517,-8253,999,
117,7,28,2023,11,5,36,885,2084,863,4516,-1663,-7618,-171,
118,7,28,2023,11,5,36,895,210,-1862,4152,-4560,-7189,-1276,
119,7,28,2023,11,5,36,905,-994,-3756,3856,-4793,-7818,-1799,
120,7,28,2023,11,5,36,915,-1514,-3924,3900,-3187,-9061,-2137,
121,7,28,2023,11,5,36,925,-1650,-2677,3954,-1577,-10353,-2681,
122,7,28,2023,11,5,36,935,-1414,-1408,3675,-1090,-11279,-3415,
123,7,28,2023,11,5,36,945,-1309,-831,3243,-1571,-11752,-4097,
124,7,28,2023,11,5,36,955,-1468,-983,2888,-2311,-11950,-4533,
125,7,28,2023,11,5,36,965,-1885,-1302,2912,-2688,-12045,-4708,
126,7,28,2023,11,5,36,975,-2600,-1495,3215,-2610,-12192,-4753,
127,7,28,2023,11,5,36,985,-3054,-1334,3446,-2371,-12504,-4809,
128,7,28,2023,11,5,36,995,-2999,-841,3544,-2308,-12748,-4891,
129,7,28,2023,11,5,37,5,-2979,-222,3672,-2648,-12694,-4975,
130,7,28,2023,11,5,37,15,-3899,-186,4062,-3391,-12343,-4954,
131,7,28,2023,11,5,37,25,-6119,-1643,4434,-4077,-12124,-4708,
132,7,28,2023,11,5,37,35,-7954,-2367,3934,-3829,-12345,-4582,
133,7,28,2023,11,5,37,45,-8413,-665,3109,-3115,-12081,-5191,
134,7,28,2023,11,5,37,55,-9700,471,2394,-3047,-10632,-6181,
135,7,28,2023,11,5,37,65,-13005,322,1512,-3136,-9023,-6885,
136,7,28,2023,11,5,37,75,-16981,351,484,-2108,-8342,-7069,
137,7,28,2023,11,5,37,85,-18143,2155,-1853,-385,-8644,-6821,
138,7,28,2023,11,5,37,95,-16204,4465,-5060,377,-8563,-6082,
139,7,28,2023,11,5,37,105,-14128,5250,-7416,-201,-7044,-4917,
140,7,28,2023,11,5,37,115,-14019,4252,-8312,-893,-4700,-3616,
141,7,28,2023,11,5,37,125,-14744,3627,-8394,-689,-2758,-2373,
142,7,28,2023,11,5,37,135,-14048,3786,-8436,-202,-1368,-1479,
143,7,28,2023,11,5,37,145,-13064,2832,-10018,761,417,-716,
144,7,28,2023,11,5,37,155,-12428,3729,-10174,3348,2770,184,
145,7,28,2023,11,5,37,165,-8988,7791,-7876,5886,5667,955,
146,7,28,2023,11,5,37,175,-5939,11251,5024,3547,10440,590,
147,7,28,2023,11,5,37,185,-15939,4642,22632,2303,9732,3132,
148,7,28,2023,11,5,37,195,-16197,-5629,7397,3760,-664,5196,
149,7,28,2023,11,5,37,205,-1267,-7355,3146,3300,-2172,2020,
150,7,28,2023,11,5,37,215,-662,3174,10145,2632,-572,942,
151,7,28,2023,11,5,37,225,-6000,1076,3356,1498,-893,1183,
152,7,28,2023,11,5,37,235,-594,729,1724,917,-492,303,
153,7,28,2023,11,5,37,245,-2264,47,1726,548,-289,20,
154,7,28,2023,11,5,37,255,-3488,-299,3753,272,-480,-159,
155,7,28,2023,11,5,37,265,-3116,-761,4552,139,-499,-184,
156,7,28,2023,11,5,37,275,-2048,-1434,4863,49,-265,-194,
157,7,28,2023,11,5,37,285,-1827,-804,4604,-13,-27,-178,
158,7,28,2023,11,5,37,295,-333,-747,5008,-78,175,-182,
159,7,28,2023,11,5,37,305,-3780,-221,3610,-186,437,-260,
160,7,28,2023,11,5,37,315,-1241,-792,4220,-292,597,-345,
161,7,28,2023,11,5,37,325,-1505,-1295,4229,-292,804,-272,
162,7,28,2023,11,5,37,335,-3108,-806,3699,-263,977,-253,
163,7,28,2023,11,5,37,345,-2809,-506,3114,-247,1187,-174,
164,7,28,2023,11,5,37,355,-1668,-744,3441,-280,1530,-105,
165,7,28,2023,11,5,37,365,-2207,-1229,3739,-295,1876,-63,
166,7,28,2023,11,5,37,375,-2796,-1005,2911,-422,2083,-52,
167,7,28,2023,11,5,37,385,-335,-1030,3923,-583,2395,-31,
168,7,28,2023,11,5,37,395,-2630,-1534,3676,-722,3123,259,
169,7,28,2023,11,5,37,405,-1406,-1663,3676,-734,3633,465,
170,7,28,2023,11,5,37,415,-2058,-1086,3562,-538,4365,986,
171,7,28,2023,11,5,37,435,-2871,-136,2903,-289,5858,1654,
172,7,28,2023,11,5,37,445,-2037,-416,3085,-361,6425,1723,
173,7,28,2023,11,5,37,455,-1882,-1039,3379,-451,6751,1881,
174,7,28,2023,11,5,37,465,-2092,-1008,3710,-52,6863,2182,
175,7,28,2023,11,5,37,475,-3023,-204,1150,17,6925,2104,
176,7,28,2023,11,5,37,485,-1994,-639,2592,167,7331,2194,
177,7,28,2023,11,5,37,495,-3679,-957,3113,295,7719,2342,
178,7,28,2023,11,5,37,505,-3603,-252,1255,390,7820,2319,
179,7,28,2023,11,5,37,515,-3538,369,1149,569,8237,2433,
180,7,28,2023,11,5,37,525,-3222,308,1884,593,8647,2319,
181,7,28,2023,11,5,37,535,-3579,-149,2918,811,9237,2273,
182,7,28,2023,11,5,37,545,-3791,-759,3488,838,9987,2223,
183,7,28,2023,11,5,37,555,-2820,-729,1665,823,10657,2271,
184,7,28,2023,11,5,37,565,-4005,-978,3921,818,11724,2514,
185,7,28,2023,11,5,37,575,-4965,-866,3902,532,12354,2783,
186,7,28,2023,11,5,37,585,-4851,-1221,2568,533,12983,3214,
187,7,28,2023,11,5,37,595,-6861,-493,4571,1027,14039,3718,
188,7,28,2023,11,5,37,605,-9719,-2186,5643,299,14395,3854,
189,7,28,2023,11,5,37,615,-10420,-3118,5745,1547,14285,4603,
190,7,28,2023,11,5,37,625,-11287,-2146,9280,1968,14152,4403,
191,7,28,2023,11,5,37,635,-7967,-3330,7721,1498,13339,4238,
192,7,28,2023,11,5,37,645,-11485,-1372,10412,1312,13121,4497,
193,7,28,2023,11,5,37,655,-6825,-2188,10584,-1635,10489,3074,
194,7,28,2023,11,5,37,665,-13176,-3478,14033,-5384,7281,2034,
195,7,28,2023,11,5,37,675,-13277,-8376,14935,-4882,926,2825,
196,7,28,2023,11,5,37,685,-2533,-5328,9933,-2723,-5270,2621,
197,7,28,2023,11,5,37,695,-1855,-3850,7927,-1991,-6958,2096,
198,7,28,2023,11,5,37,705,370,-3031,6258,-2353,-7517,1373,
199,7,28,2023,11,5,37,715,1377,-2999,5003,-3172,-7458,495,
200,7,28,2023,11,5,37,725,209,-3487,5041,-3548,-7177,-379,
201,7,28,2023,11,5,37,735,-1079,-4095,5252,-3192,-7678,-1214,
202,7,28,2023,11,5,37,745,-1360,-3867,5395,-2197,-9011,-2047,
203,7,28,2023,11,5,37,755,-1244,-2788,5429,-1353,-10456,-2896,
204,7,28,2023,11,5,37,765,-1427,-1860,5347,-1250,-11614,-3751,
205,7,28,2023,11,5,37,775,-1656,-1463,5106,-1705,-12597,-4483,
206,7,28,2023,11,5,37,785,-1851,-1366,4703,-2247,-13411,-4964,
207,7,28,2023,11,5,37,795,-2099,-1432,4274,-2554,-13963,-5239,
208,7,28,2023,11,5,37,805,-2511,-1522,4071,-2575,-14222,-5390,
209,7,28,2023,11,5,37,815,-3093,-1355,4333,-2477,-14221,-5565,
210,7,28,2023,11,5,37,825,-4010,-1246,4823,-2413,-14114,-5876,
211,7,28,2023,11,5,37,835,-5111,-1433,5529,-2408,-14193,-6274,
212,7,28,2023,11,5,37,845,-6292,-1998,6434,-2261,-14411,-6600,
213,7,28,2023,11,5,37,855,-8215,-3020,7160,-1977,-14778,-6863,
214,7,28,2023,11,5,37,865,-10098,-2233,6702,-1331,-15189,-7547,
215,7,28,2023,11,5,37,875,-11006,-23,5422,-999,-14950,-8932,
216,7,28,2023,11,5,37,885,-12540,1831,3014,-1341,-13613,-10255,
217,7,28,2023,11,5,37,895,-15317,1701,-577,-1593,-11851,-10295,
218,7,28,2023,11,5,37,905,-18999,163,-3935,-388,-10562,-8331,
219,7,28,2023,11,5,37,915,-19096,2719,-6799,1861,-9938,-5224,
220,7,28,2023,11,5,37,925,-17189,8137,-9328,1206,-8189,-2881,
221,7,28,2023,11,5,37,935,-17515,8861,-11453,-2724,-4866,-1830,
222,7,28,2023,11,5,37,945,-17880,5235,-12954,-4391,-1908,-1329,
223,7,28,2023,11,5,37,955,-16286,5199,-12797,-919,169,-508,
224,7,28,2023,11,5,37,965,-14373,7685,-11562,2464,2341,325,
225,7,28,2023,11,5,37,975,-15215,9156,-13413,2655,5272,930,
226,7,28,2023,11,5,37,985,-7607,4610,-10002,1137,9961,1821,
227,7,28,2023,11,5,37,995,-13656,-3830,9635,1554,14200,4127,
228,7,28,2023,11,5,38,5,-26175,-8865,23163,5615,6631,5810,
229,7,28,2023,11,5,38,15,-461,4926,5800,3165,-2491,1786,
230,7,28,2023,11,5,38,25,-1330,-2599,10853,1546,-1050,1243,
231,7,28,2023,11,5,38,35,-6070,-2754,6540,1486,-761,920,
232,7,28,2023,11,5,38,45,-2978,1165,1774,1122,-426,609,
233,7,28,2023,11,5,38,55,-2290,1138,743,836,70,662,
234,7,28,2023,11,5,38,65,-2112,-469,2783,557,34,317,
235,7,28,2023,11,5,38,75,-2646,-1761,3798,406,-520,57,
236,7,28,2023,11,5,38,85,-1313,-1640,5783,425,-847,118,
237,7,28,2023,11,5,38,95,-1008,-653,5525,255,-415,186,
238,7,28,2023,11,5,38,105,-1179,-1015,5039,37,144,67,
239,7,28,2023,11,5,38,115,-3535,-557,4261,-33,393,97,
240,7,28,2023,11,5,38,125,-3041,-40,4238,-122,738,43,
241,7,28,2023,11,5,38,135,-2040,-986,4538,-217,1182,-39,
242,7,28,2023,11,5,38,145,-2542,-1778,3984,-230,1519,2,
243,7,28,2023,11,5,38,155,-2820,-1243,3690,-235,1728,55,
244,7,28,2023,11,5,38,165,-735,-1041,4397,-279,2085,76,
245,7,28,2023,11,5,38,175,-2036,-804,4392,-432,2974,215,
246,7,28,2023,11,5,38,185,-869,-922,4705,-845,4286,313,
247,7,28,2023,11,5,38,195,-1710,-1409,4322,-935,5974,702,
248,7,28,2023,11,5,38,205,-3090,-701,4602,-766,7734,1245,
249,7,28,2023,11,5,38,215,-2217,334,4403,-877,9323,1610,
250,7,28,2023,11,5,38,225,-1379,-850,4383,-1026,10563,1614,
251,7,28,2023,11,5,38,235,-529,-1397,2996,-457,10779,2014,
252,7,28,2023,11,5,38,245,-1936,-1435,2495,410,11293,2646,
253,7,28,2023,11,5,38,255,-4229,-1304,3750,407,12122,3057,
254,7,28,2023,11,5,38,265,-2698,-2510,2421,56,11944,3275,
255,7,28,2023,11,5,38,275,-3864,-673,1846,90,11808,3605,
256,7,28,2023,11,5,38,295,-8374,-1341,2968,-394,10233,3605,
257,7,28,2023,11,5,38,305,-8288,-1792,4929,508,8771,4122,
258,7,28,2023,11,5,38,315,-4451,-696,4227,1095,7208,4367,
259,7,28,2023,11,5,38,325,-5274,1338,5387,1210,7464,5260,
260,7,28,2023,11,5,38,335,-5550,1787,7993,-279,7306,6093,
261,7,28,2023,11,5,38,345,-7064,-683,8944,-2557,6292,7052,
262,7,28,2023,11,5,38,355,-8438,-4609,9536,-3073,4869,7768,
263,7,28,2023,11,5,38,365,-3541,-5600,7718,-2406,3755,7316,
264,7,28,2023,11,5,38,375,-2632,-5608,7680,-1414,4459,6534,
265,7,28,2023,11,5,38,385,-2961,-5859,8750,-759,5449,5680,
266,7,28,2023,11,5,38,395,-2810,-6235,9030,-536,5627,4585,
267,7,28,2023,11,5,38,405,-2227,-6796,8657,-174,5088,3397,
268,7,28,2023,11,5,38,415,-1315,-6914,7918,543,4093,2392,
269,7,28,2023,11,5,38,425,-447,-6150,7481,1208,2972,1715,
270,7,28,2023,11,5,38,435,142,-5255,7086,1047,1806,1086,
271,7,28,2023,11,5,38,445,450,-5116,6331,197,583,316,
272,7,28,2023,11,5,38,455,644,-5104,5476,-567,-714,-428,
273,7,28,2023,11,5,38,465,844,-4898,4857,-1006,-1965,-1161,
274,7,28,2023,11,5,38,475,971,-4661,4468,-1250,-3117,-1968,
275,7,28,2023,11,5,38,485,872,-4197,4318,-1408,-4224,-2938,
276,7,28,2023,11,5,38,495,489,-3592,4368,-1600,-5331,-4108,
277,7,28,2023,11,5,38,505,73,-2916,4475,-1882,-6445,-5301,
278,7,28,2023,11,5,38,515,-501,-2358,4608,-2233,-7526,-6356,
279,7,28,2023,11,5,38,525,-1440,-2317,4816,-2450,-8557,-7182,
280,7,28,2023,11,5,38,535,-2496,-2532,5043,-2204,-9665,-7703,
281,7,28,2023,11,5,38,545,-3015,-2249,5279,-1486,-10882,-7952,
282,7,28,2023,11,5,38,555,-3176,-1345,5706,-864,-11925,-8036,
283,7,28,2023,11,5,38,565,-3622,-871,6098,-879,-12697,-8002,
284,7,28,2023,11,5,38,575,-4371,-1107,6488,-1228,-13342,-7752,
285,7,28,2023,11,5,38,585,-5351,-1429,7097,-1414,-13961,-7303,
286,7,28,2023,11,5,38,595,-6364,-1337,7713,-1490,-14566,-6804,
287,7,28,2023,11,5,38,605,-8112,-2881,7768,-1896,-15108,-6212,
288,7,28,2023,11,5,38,615,-10367,-4472,6882,-1792,-15427,-5794,
289,7,28,2023,11,5,38,625,-12424,-3437,6131,-915,-14901,-6166,
290,7,28,2023,11,5,38,635,-15122,-1232,5100,-762,-13093,-7231,
291,7,28,2023,11,5,38,645,-18475,-1153,2988,-1517,-11126,-8063,
292,7,28,2023,11,5,38,655,-21304,-1400,401,-1264,-9968,-7860,
293,7,28,2023,11,5,38,665,-21109,1697,-2605,-65,-9585,-6689,
294,7,28,2023,11,5,38,675,-17821,7474,-6570,-1023,-8620,-5366,
295,7,28,2023,11,5,38,685,-16355,9130,-10758,-4305,-5874,-4366,
296,7,28,2023,11,5,38,695,-16944,7270,-12710,-5177,-2578,-3095,
297,7,28,2023,11,5,38,705,-17543,6994,-12024,-1879,19,-1616,
298,7,28,2023,11,5,38,715,-15845,7798,-10151,1944,1768,-353,
299,7,28,2023,11,5,38,725,-14212,6758,-9147,3965,3414,984,
300,7,28,2023,11,5,38,735,-11943,7530,-7269,5845,5359,2750,
301,7,28,2023,11,5,38,745,-1234,4294,2887,6032,7473,4600,
302,7,28,2023,11,5,38,755,-471,-2663,12404,3517,8466,4683,
303,7,28,2023,11,5,38,765,-6272,1210,6410,2800,7555,4603,
304,7,28,2023,11,5,38,775,-16326,-2179,8630,4059,6455,5158,
305,7,28,2023,11,5,38,785,-17186,-517,13099,4967,1729,3074,
306,7,28,2023,11,5,38,795,2089,680,6563,2496,-1205,1126,
307,7,28,2023,11,5,38,805,-4892,57,4503,1585,-174,1099,
308,7,28,2023,11,5,38,815,-3675,-233,2383,1084,-152,586,
309,7,28,2023,11,5,38,825,161,121,1730,746,-268,300,
310,7,28,2023,11,5,38,835,-2961,-812,2745,625,-469,258,
311,7,28,2023,11,5,38,845,-2180,-1786,4307,630,-878,183,
312,7,28,2023,11,5,38,855,-2993,-1134,3823,669,-958,299,
313,7,28,2023,11,5,38,865,-3803,114,4601,596,-635,346,
314,7,28,2023,11,5,38,875,-2569,-289,4450,348,-428,114,
315,7,28,2023,11,5,38,885,-1612,-777,4406,150,-147,3,
316,7,28,2023,11,5,38,895,-744,-1122,4855,26,205,-13,
317,7,28,2023,11,5,38,905,-2723,-634,4808,-60,544,-42,
318,7,28,2023,11,5,38,915,-1760,-1064,5014,-121,879,-103,
319,7,28,2023,11,5,38,925,-3104,-1202,4305,-183,1324,-45,
320,7,28,2023,11,5,38,935,-3487,-166,3830,-247,1930,38,
321,7,28,2023,11,5,38,945,-2265,76,3990,-397,2725,54,
322,7,28,2023,11,5,38,955,-1648,-97,4154,-749,3814,-128,
323,7,28,2023,11,5,38,965,-413,-488,5117,-1172,5406,-193,
324,7,28,2023,11,5,38,975,-2058,-1816,4839,-1514,7314,-7,
325,7,28,2023,11,5,38,985,-858,-1526,4958,-1309,8993,541,
326,7,28,2023,11,5,38,995,-1318,-980,4580,-1053,10415,1371,
327,7,28,2023,11,5,39,5,-2992,-281,2695,-1058,11878,2077,
328,7,28,2023,11,5,39,15,-1824,-1094,2665,-243,12917,2770,
329,7,28,2023,11,5,39,25,-2178,-472,3066,476,13859,3092,
330,7,28,2023,11,5,39,35,-2970,-585,3829,-205,14698,2724,
331,7,28,2023,11,5,39,45,-4601,-1657,2449,-466,14808,2725,
332,7,28,2023,11,5,39,55,-3875,-811,3991,-289,14243,2650,
333,7,28,2023,11,5,39,65,-6568,-313,1849,-893,13667,2598,
334,7,28,2023,11,5,39,75,-8432,-697,1998,-995,12612,2400,
335,7,28,2023,11,5,39,85,-8091,-1671,2772,-433,11100,2370,
336,7,28,2023,11,5,39,95,-6274,-1224,4017,692,9418,2668,
337,7,28,2023,11,5,39,105,-4704,-364,3619,911,8905,3121,
338,7,28,2023,11,5,39,115,-5026,2123,5279,181,9249,3758,
339,7,28,2023,11,5,39,125,-4980,2328,6808,-2081,9228,4595,
340,7,28,2023,11,5,39,135,-6088,1372,8415,-4704,8114,5725,
341,7,28,2023,11,5,39,155,-6167,-4818,8097,-4953,3020,7199,
342,7,28,2023,11,5,39,165,-3533,-4880,6503,-3255,1945,7322,
343,7,28,2023,11,5,39,175,-3811,-4896,7140,-1604,2694,7471,
344,7,28,2023,11,5,39,185,-4168,-5129,7910,-759,3432,7109,
345,7,28,2023,11,5,39,195,-4529,-5748,8441,-433,3565,6233,
346,7,28,2023,11,5,39,205,-4408,-6568,8431,-137,2845,5098,
347,7,28,2023,11,5,39,215,-3961,-7076,8141,453,1622,4079,
348,7,28,2023,11,5,39,225,-3304,-6708,7695,1117,246,3256,
349,7,28,2023,11,5,39,235,-2492,-6008,7112,1289,-1083,2381,
350,7,28,2023,11,5,39,245,-1489,-5523,6452,925,-2217,1410,
351,7,28,2023,11,5,39,255,-765,-5236,5989,323,-3112,360,
352,7,28,2023,11,5,39,265,-472,-5160,5824,-311,-4035,-822,
353,7,28,2023,11,5,39,275,-304,-5128,5854,-788,-5187,-2172,
354,7,28,2023,11,5,39,285,-415,-4725,5838,-1046,-6505,-3609,
355,7,28,2023,11,5,39,295,-602,-3798,5738,-1210,-7810,-4992,
356,7,28,2023,11,5,39,305,-1272,-2715,5972,-1599,-8901,-6147,
357,7,28,2023,11,5,39,315,-2635,-2181,6459,-2287,-9981,-7058,
358,7,28,2023,11,5,39,325,-3823,-2123,6667,-2757,-11362,-7706,
359,7,28,2023,11,5,39,335,-4234,-1932,6400,-2637,-12847,-8025,
360,7,28,2023,11,5,39,345,-4067,-1418,6039,-2125,-13963,-7982,
361,7,28,2023,11,5,39,355,-4135,-767,6087,-1756,-14459,-7709,
362,7,28,2023,11,5,39,365,-4751,-676,6740,-1813,-14551,-7410,
363,7,28,2023,11,5,39,375,-6092,-1109,7398,-2014,-14821,-7172,
364,7,28,2023,11,5,39,385,-6782,-1062,7999,-1985,-15442,-7044,
365,7,28,2023,11,5,39,395,-7140,-1235,8618,-2047,-15956,-6940,
366,7,28,2023,11,5,39,405,-8695,-2090,8712,-2205,-16212,-6697,
367,7,28,2023,11,5,39,415,-10917,-1453,7827,-1889,-16095,-6716,
368,7,28,2023,11,5,39,425,-13848,822,6569,-1653,-14961,-7371,
369,7,28,2023,11,5,39,435,-17954,1317,4767,-1850,-13136,-8283,
370,7,28,2023,11,5,39,445,-21799,155,1697,-1319,-12179,-8392,
371,7,28,2023,11,5,39,455,-22102,1058,-2829,710,-12338,-7279,
372,7,28,2023,11,5,39,465,-18634,5759,-8132,1623,-11576,-5515,
373,7,28,2023,11,5,39,475,-17778,9959,-12125,-821,-8147,-3615,
374,7,28,2023,11,5,39,485,-20248,9012,-13677,-4418,-3816,-2457,
375,7,28,2023,11,5,39,495,-20319,5160,-14092,-3678,-714,-2171,
376,7,28,2023,11,5,39,505,-17515,5543,-12877,1652,1253,-1375,
377,7,28,2023,11,5,39,515,-14996,7583,-9759,5008,3025,-78,
378,7,28,2023,11,5,39,525,-12670,5652,-7104,4211,4666,639,
379,7,28,2023,11,5,39,535,-9790,6204,-6305,2551,6367,679,
380,7,28,2023,11,5,39,545,255,1138,-4551,-677,9882,1544,
381,7,28,2023,11,5,39,555,-2109,-8438,4250,-396,13527,4345,
382,7,28,2023,11,5,39,565,-22097,-13302,12972,2909,12017,7070,
383,7,28,2023,11,5,39,575,-23479,3302,14217,5267,1939,4409,
384,7,28,2023,11,5,39,585,5596,5730,8030,1727,-2067,1079,
385,7,28,2023,11,5,39,595,-7157,-5076,6074,1537,-870,1835,
386,7,28,2023,11,5,39,605,-4412,-1043,5029,1590,-790,827,
387,7,28,2023,11,5,39,615,451,116,2718,1130,-544,722,
388,7,28,2023,11,5,39,625,-3014,823,3101,794,-129,628,
389,7,28,2023,11,5,39,635,10,-1306,4919,337,-300,55,
390,7,28,2023,11,5,39,645,-3759,-1278,4620,223,-516,-25,
391,7,28,2023,11,5,39,655,-5058,-246,5038,90,-206,57,
392,7,28,2023,11,5,39,665,-1899,-688,4751,-191,254,-60,
393,7,28,2023,11,5,39,675,-2134,-951,4601,-269,525,-96,
394,7,28,2023,11,5,39,685,-762,-1633,4774,-332,717,-149,
395,7,28,2023,11,5,39,695,-2376,-1865,4632,-332,1132,-69,
396,7,28,2023,11,5,39,705,-1308,-1706,4968,-307,1461,37,
397,7,28,2023,11,5,39,715,-3720,-798,4387,-299,2023,131,
398,7,28,2023,11,5,39,725,-3244,90,4457,-590,3059,26,
399,7,28,2023,11,5,39,735,-852,12,4619,-1145,4866,-25,
400,7,28,2023,11,5,39,745,-931,-1816,4469,-1672,7244,165,
401,7,28,2023,11,5,39,755,-57,-1383,5764,-1382,9474,795,
402,7,28,2023,11,5,39,765,-1645,-1411,5326,-1316,11309,1597,
403,7,28,2023,11,5,39,775,-742,124,5025,-1044,12517,1934,
404,7,28,2023,11,5,39,785,-2014,-1082,2310,-355,13066,2598,
405,7,28,2023,11,5,39,795,-3595,342,3341,515,14348,2999,
406,7,28,2023,11,5,39,805,-4022,-1495,2745,-724,15163,2687,
407,7,28,2023,11,5,39,815,-3803,-2995,3616,-689,14789,2941,
408,7,28,2023,11,5,39,825,-5630,-1054,3118,-486,13881,3058,
409,7,28,2023,11,5,39,835,-9115,-1715,3881,-811,12147,3193,
410,7,28,2023,11,5,39,845,-6143,-1271,2846,29,9577,3375,
411,7,28,2023,11,5,39,855,-4308,-207,2604,860,8482,3399,
412,7,28,2023,11,5,39,865,-5354,-933,4857,1425,8683,3885,
413,7,28,2023,11,5,39,875,-3904,1521,7095,1528,8308,4254,
414,7,28,2023,11,5,39,885,-3527,3615,9365,-137,7645,5441,
415,7,28,2023,11,5,39,895,-6865,59,10667,-2146,5992,7115,
416,7,28,2023,11,5,39,905,-4342,-2679,9670,-2437,3599,8195,
417,7,28,2023,11,5,39,915,-2549,-2950,8135,-1733,2324,8842,
418,7,28,2023,11,5,39,925,-2750,-3374,8007,-1301,2376,8817,
419,7,28,2023,11,5,39,935,-2753,-4476,7779,-1386,2872,8076,
420,7,28,2023,11,5,39,945,-3612,-5798,8142,-1183,3509,7000,
421,7,28,2023,11,5,39,955,-4525,-6642,8604,-489,3733,5710,
422,7,28,2023,11,5,39,965,-4669,-7052,8563,419,3282,4278,
423,7,28,2023,11,5,39,975,-4275,-6894,8295,1305,2295,2828,
424,7,28,2023,11,5,39,985,-3301,-6385,7808,1912,1034,1567,
425,7,28,2023,11,5,39,995,-2201,-5710,7053,2076,-265,603,
426,7,28,2023,11,5,40,15,-1086,-4340,5534,1106,-2689,-855,
427,7,28,2023,11,5,40,25,-691,-4051,5067,222,-3850,-1520,
428,7,28,2023,11,5,40,35,-395,-4054,4829,-616,-4974,-2108,
429,7,28,2023,11,5,40,45,-699,-4091,5108,-1197,-6120,-2723,
430,7,28,2023,11,5,40,55,-1389,-4111,5425,-1551,-7494,-3521,
431,7,28,2023,11,5,40,65,-1957,-3840,5359,-1740,-9094,-4425,
432,7,28,2023,11,5,40,75,-2251,-3351,5053,-1909,-10583,-5241,
433,7,28,2023,11,5,40,85,-2583,-2976,4804,-2146,-11708,-5894,
434,7,28,2023,11,5,40,95,-3114,-2858,4699,-2390,-12513,-6351,
435,7,28,2023,11,5,40,105,-3712,-2673,4849,-2577,-13088,-6603,
436,7,28,2023,11,5,40,115,-4388,-2526,5246,-2864,-13456,-6793,
437,7,28,2023,11,5,40,125,-4991,-2658,5888,-3218,-13679,-7066,
438,7,28,2023,11,5,40,135,-5950,-3068,6565,-3479,-13906,-7392,
439,7,28,2023,11,5,40,145,-6798,-3165,7435,-3491,-14217,-7745,
440,7,28,2023,11,5,40,155,-7853,-3532,8419,-3553,-14481,-8071,
441,7,28,2023,11,5,40,165,-10051,-4939,8568,-3598,-14732,-8218,
442,7,28,2023,11,5,40,175,-12460,-3438,7632,-2883,-14732,-8677,
443,7,28,2023,11,5,40,185,-15693,303,5966,-2688,-13731,-9801,
444,7,28,2023,11,5,40,195,-18284,1018,2932,-3171,-12214,-10834,
445,7,28,2023,11,5,40,205,-21204,1405,48,-2307,-10938,-10579,
446,7,28,2023,11,5,40,215,-21492,4723,-2320,-429,-10364,-8556,
447,7,28,2023,11,5,40,225,-17757,10415,-5234,-1005,-9865,-5501,
448,7,28,2023,11,5,40,235,-18297,11759,-9316,-4547,-7843,-2494,
449,7,28,2023,11,5,40,245,-19757,10051,-12942,-6233,-5404,212,
450,7,28,2023,11,5,40,255,-17881,8973,-13743,-3835,-2905,2009,
451,7,28,2023,11,5,40,265,-15382,8158,-11902,-76,-130,2888,
452,7,28,2023,11,5,40,275,-14445,6831,-8700,2274,2185,3418,
453,7,28,2023,11,5,40,285,-12565,5372,-6316,2999,3559,3386,
454,7,28,2023,11,5,40,295,-8881,5461,-6603,3656,5396,3355,
455,7,28,2023,11,5,40,305,4631,1315,351,3959,9069,4964,
456,7,28,2023,11,5,40,315,-3990,-6063,9922,2613,12365,6756,
457,7,28,2023,11,5,40,325,-22807,-7461,9877,4037,10755,7437,
458,7,28,2023,11,5,40,335,-25571,3445,16303,7252,3135,4688,
459,7,28,2023,11,5,40,345,8819,1648,11079,2362,-1939,954,
460,7,28,2023,11,5,40,355,-4657,-2860,5505,2465,-773,1984,
461,7,28,2023,11,5,40,365,-8064,1907,2493,2146,-142,1276,
462,7,28,2023,11,5,40,375,-554,1123,957,1175,-107,754,
463,7,28,2023,11,5,40,385,-518,355,3110,697,17,516,
464,7,28,2023,11,5,40,395,-4106,-722,4150,266,-192,32,
465,7,28,2023,11,5,40,405,-615,-2679,5734,32,-538,-221,
466,7,28,2023,11,5,40,415,-2781,-1281,5170,130,-353,-2,
467,7,28,2023,11,5,40,425,-3161,-215,3691,138,171,235,
468,7,28,2023,11,5,40,435,-2859,23,3499,25,465,265,
469,7,28,2023,11,5,40,445,-1337,-310,3775,-94,490,30,
470,7,28,2023,11,5,40,455,-892,-1577,4133,-168,841,-5,
471,7,28,2023,11,5,40,465,-2602,-1953,5157,-97,1196,156,
472,7,28,2023,11,5,40,475,-1977,-1472,4959,-151,1452,183,
473,7,28,2023,11,5,40,485,-3213,-626,4204,-213,2169,288,
474,7,28,2023,11,5,40,495,-2990,-164,4117,-407,3491,420,
475,7,28,2023,11,5,40,505,-1018,-899,4568,-736,5297,525,
476,7,28,2023,11,5,40,515,-813,-1545,5742,-790,7412,871,
477,7,28,2023,11,5,40,525,-1832,-1125,4927,-739,9337,1373,
478,7,28,2023,11,5,40,535,-485,-428,5595,-627,11230,2001,
479,7,28,2023,11,5,40,545,-1441,-1076,5272,-1095,12524,2391,
480,7,28,2023,11,5,40,555,-1758,-243,1987,-315,13265,3161,
481,7,28,2023,11,5,40,565,-2910,-133,2748,724,15095,3590,
482,7,28,2023,11,5,40,575,-3833,-1265,3602,552,16043,3563,
483,7,28,2023,11,5,40,585,-2549,-2691,3285,532,16156,3648,
484,7,28,2023,11,5,40,595,-5393,-580,3839,440,16469,3920,
485,7,28,2023,11,5,40,605,-6448,-2630,2878,-772,15725,3840,
486,7,28,2023,11,5,40,615,-8002,295,1946,-124,14458,4137,
487,7,28,2023,11,5,40,625,-8232,-1475,3128,-630,13119,3768,
488,7,28,2023,11,5,40,635,-6368,-2039,4380,340,11788,3814,
489,7,28,2023,11,5,40,645,-6381,-1783,5755,1423,10864,4041,
490,7,28,2023,11,5,40,655,-4034,-1295,4098,2209,10314,4167,
491,7,28,2023,11,5,40,665,-5633,-1306,5979,2380,10750,3946,
492,7,28,2023,11,5,40,675,-7184,-500,7509,1434,10204,3306,
493,7,28,2023,11,5,40,685,-10517,-2831,10395,320,8528,2966,
494,7,28,2023,11,5,40,695,-7183,-3313,9729,-126,5183,2348,
495,7,28,2023,11,5,40,705,-5121,-3217,8568,-215,3424,2138,
496,7,28,2023,11,5,40,715,-4367,-3050,8363,-363,3028,2228,
497,7,28,2023,11,5,40,725,-4782,-3366,8566,-825,2985,2382,
498,7,28,2023,11,5,40,735,-5254,-4005,9025,-1194,2647,2450,
499,7,28,2023,11,5,40,745,-5383,-4777,9154,-1226,1686,2307,
500,7,28,2023,11,5,40,755,-4942,-5272,8615,-750,10,2001,
501,7,28,2023,11,5,40,765,-3662,-5033,7741,100,-1995,1683,
502,7,28,2023,11,5,40,775,-2379,-4268,6847,717,-3629,1483,
503,7,28,2023,11,5,40,785,-1509,-3550,5834,621,-4794,1262,
504,7,28,2023,11,5,40,795,-976,-3385,4884,143,-5692,842,
505,7,28,2023,11,5,40,805,-838,-3473,4358,-155,-6524,302,
506,7,28,2023,11,5,40,815,-491,-3454,4220,-200,-7440,-281,
507,7,28,2023,11,5,40,825,-468,-3317,4616,-289,-8446,-952,
508,7,28,2023,11,5,40,835,-937,-3270,5014,-613,-9720,-1825,
509,7,28,2023,11,5,40,845,-1265,-2979,4945,-1022,-11281,-2803,
510,7,28,2023,11,5,40,855,-1594,-2488,4759,-1509,-12727,-3637,
511,7,28,2023,11,5,40,875,-3310,-2138,4665,-2658,-14843,-4596,
512,7,28,2023,11,5,40,885,-4047,-1849,4927,-3010,-15624,-4791,
513,7,28,2023,11,5,40,895,-4688,-1592,5057,-3409,-16173,-4921,
514,7,28,2023,11,5,40,905,-5129,-1617,5108,-3916,-16483,-4973,
515,7,28,2023,11,5,40,915,-5649,-1730,5517,-4338,-16456,-5045,
516,7,28,2023,11,5,40,925,-6764,-2419,6732,-4616,-16220,-5247,
517,7,28,2023,11,5,40,935,-8933,-3237,7912,-4739,-16282,-5632,
518,7,28,2023,11,5,40,945,-10474,-2674,8027,-4468,-16517,-6601,
519,7,28,2023,11,5,40,955,-12034,-2280,8023,-4357,-16112,-7833,
520,7,28,2023,11,5,40,965,-14482,-1583,7976,-4167,-15058,-8931,
521,7,28,2023,11,5,40,975,-17512,123,7175,-3770,-13849,-9824,
522,7,28,2023,11,5,40,985,-19925,1610,4443,-3426,-12799,-10269,
523,7,28,2023,11,5,40,995,-19596,2745,174,-2883,-11980,-9533,
524,7,28,2023,11,5,41,5,-17518,5952,-3906,-2145,-10375,-7792,
525,7,28,2023,11,5,41,15,-18132,8727,-7387,-2153,-7581,-5773,
526,7,28,2023,11,5,41,25,-19707,10129,-10503,-2407,-4816,-3802,
527,7,28,2023,11,5,41,35,-20097,11588,-12503,-1692,-2451,-2044,
528,7,28,2023,11,5,41,45,-17906,9844,-12992,-227,-266,-104,
529,7,28,2023,11,5,41,55,-15423,6999,-10241,2259,1909,2011,
530,7,28,2023,11,5,41,65,-14408,5919,-6168,4138,3524,3137,
531,7,28,2023,11,5,41,75,-11161,5449,-4500,3918,4365,3022,
532,7,28,2023,11,5,41,85,-4317,3564,-4017,1904,6415,3576,
533,7,28,2023,11,5,41,95,5195,-7511,3602,995,9546,5899,
534,7,28,2023,11,5,41,105,-4322,-8088,6571,2222,11290,7164,
535,7,28,2023,11,5,41,115,-19869,-832,243,2747,11543,5529,
536,7,28,2023,11,5,41,125,-29972,-1734,21352,5254,9712,4001,
537,7,28,2023,11,5,41,135,-671,2559,12282,3899,-126,2021,
538,7,28,2023,11,5,41,145,-116,-2767,4042,1929,-1256,1909,
539,7,28,2023,11,5,41,155,-5757,426,4650,1789,-444,1113,
540,7,28,2023,11,5,41,165,-2154,795,2529,1040,-536,537,
541,7,28,2023,11,5,41,175,-4253,1038,3274,600,-179,318,
542,7,28,2023,11,5,41,185,-2905,-794,4211,250,-226,-50,
543,7,28,2023,11,5,41,195,-1853,-2010,4984,156,-182,-63,
544,7,28,2023,11,5,41,205,-113,-1701,5467,131,-58,62,
545,7,28,2023,11,5,41,215,-1842,-791,5007,50,391,134,
546,7,28,2023,11,5,41,225,-2048,-988,4376,-114,668,66,
547,7,28,2023,11,5,41,235,-3102,-1002,3860,-156,905,129,
548,7,28,2023,11,5,41,245,-3154,-1304,3980,-151,1219,212,
549,7,28,2023,11,5,41,255,-1957,-1539,4213,-88,1481,305,
550,7,28,2023,11,5,41,265,-1845,-1186,4880,-66,1944,445,
551,7,28,2023,11,5,41,275,-2283,-835,4299,-247,2677,476,
552,7,28,2023,11,5,41,285,-733,-530,5138,-564,4207,559,
553,7,28,2023,11,5,41,295,-1123,-1506,5144,-1077,6201,770,
554,7,28,2023,11,5,41,305,-2539,-886,4275,-809,8311,1420,
555,7,28,2023,11,5,41,315,-1147,-909,4392,-438,10399,2193,
556,7,28,2023,11,5,41,325,-1821,-421,5069,-639,11889,2550,
557,7,28,2023,11,5,41,335,-562,-2208,4552,-572,12223,2888,
558,7,28,2023,11,5,41,345,-2770,79,3440,530,12900,3341,
559,7,28,2023,11,5,41,355,-2857,-1209,4030,-105,13748,3090,
560,7,28,2023,11,5,41,365,-3618,-984,1920,62,14172,3310,
561,7,28,2023,11,5,41,375,-5760,712,2848,106,15048,3548,
562,7,28,2023,11,5,41,385,-5703,-2132,3163,-1161,14869,3293,
563,7,28,2023,11,5,41,395,-6091,-88,3886,-545,14106,3427,
564,7,28,2023,11,5,41,405,-4578,-1468,3155,-911,12992,3097,
565,7,28,2023,11,5,41,415,-4601,-1681,4362,523,12627,3555,
566,7,28,2023,11,5,41,425,-4955,-946,4591,1344,12378,3433,
567,7,28,2023,11,5,41,435,-3259,-1269,2730,2015,12239,3618,
568,7,28,2023,11,5,41,445,-4771,-242,4354,3461,12864,4105,
569,7,28,2023,11,5,41,455,-6820,-150,5372,3255,12617,3625,
570,7,28,2023,11,5,41,465,-6213,-1931,6668,2136,11422,2480,
571,7,28,2023,11,5,41,475,-10417,-1289,11475,1229,8764,1601,
572,7,28,2023,11,5,41,485,-8742,-1862,11692,825,3877,1681,
573,7,28,2023,11,5,41,495,-3133,-1221,8839,63,656,2136,
574,7,28,2023,11,5,41,505,-4340,-1679,8959,-1188,352,2935,
575,7,28,2023,11,5,41,515,-5488,-3143,9364,-2469,141,3491,
576,7,28,2023,11,5,41,525,-6515,-4837,9640,-3014,-832,3498,
577,7,28,2023,11,5,41,535,-6299,-5580,9117,-2702,-2598,3178,
578,7,28,2023,11,5,41,545,-4453,-5649,7951,-1875,-4374,2851,
579,7,28,2023,11,5,41,555,-2629,-5269,6749,-938,-5470,2834,
580,7,28,2023,11,5,41,565,-1989,-4907,6155,-332,-5914,2986,
581,7,28,2023,11,5,41,575,-2850,-4895,6279,-182,-6415,2841,
582,7,28,2023,11,5,41,585,-3324,-4832,6151,-450,-7591,2017,
583,7,28,2023,11,5,41,595,-2299,-5181,5338,-729,-9086,822,
584,7,28,2023,11,5,41,605,-800,-5183,4246,-508,-10249,-248,
585,7,28,2023,11,5,41,615,-51,-4432,3659,-62,-10862,-1072,
586,7,28,2023,11,5,41,625,-531,-3629,3914,-193,-11113,-1805,
587,7,28,2023,11,5,41,635,-1841,-3258,4458,-1100,-11473,-2684,
588,7,28,2023,11,5,41,645,-2998,-3476,4641,-2174,-12220,-3736,
589,7,28,2023,11,5,41,655,-3573,-3594,4520,-2657,-13159,-4673,
590,7,28,2023,11,5,41,665,-3897,-2979,4377,-2647,-13960,-5239,
591,7,28,2023,11,5,41,675,-4365,-2307,4360,-2845,-14381,-5482,
592,7,28,2023,11,5,41,685,-4890,-2738,4390,-3271,-14488,-5628,
593,7,28,2023,11,5,41,695,-5401,-3462,4906,-3223,-14406,-5862,
594,7,28,2023,11,5,41,705,-6016,-3010,5958,-2829,-14256,-6421,
595,7,28,2023,11,5,41,715,-6991,-3293,6577,-2922,-14099,-7207,
596,7,28,2023,11,5,41,735,-10702,-3825,4286,-2026,-13466,-8027,
597,7,28,2023,11,5,41,745,-13438,-1766,3268,-1362,-12053,-8463,
598,7,28,2023,11,5,41,755,-16384,-264,2208,-1405,-10206,-9286,
599,7,28,2023,11,5,41,765,-20635,2061,1358,-1420,-8568,-10020,
600,7,28,2023,11,5,41,775,-22906,5689,-544,-1653,-7983,-10248,
601,7,28,2023,11,5,41,785,-20591,8423,-4348,-2362,-8032,-9341,
602,7,28,2023,11,5,41,795,-17519,10133,-8678,-2769,-7222,-6468,
603,7,28,2023,11,5,41,805,-17617,10435,-11484,-2419,-5135,-2289,
604,7,28,2023,11,5,41,815,-18298,9570,-11795,-1533,-2836,1369,
605,7,28,2023,11,5,41,825,-17339,8012,-10674,-873,-849,3267,
606,7,28,2023,11,5,41,835,-15858,5192,-9219,-212,880,3863,
607,7,28,2023,11,5,41,845,-14953,2979,-8244,1240,2547,3944,
608,7,28,2023,11,5,41,855,-11036,3106,-6665,2888,5064,3833,
609,7,28,2023,11,5,41,865,-2377,-108,3009,2098,8627,2691,
610,7,28,2023,11,5,41,875,-2924,-5334,7840,571,10207,943,
611,7,28,2023,11,5,41,885,-6377,1168,5036,1685,10004,2292,
612,7,28,2023,11,5,41,895,-21676,-1461,16853,2807,8053,3581,
613,7,28,2023,11,5,41,905,-7405,-1023,7824,2938,-618,2789,
614,7,28,2023,11,5,41,915,1103,-2626,4279,1938,-1570,1911,
615,7,28,2023,11,5,41,925,-4593,236,3307,1926,-1000,1420,
616,7,28,2023,11,5,41,935,-5656,1739,2400,1713,-1187,972,
617,7,28,2023,11,5,41,945,-1482,354,3737,1012,-1031,272,
618,7,28,2023,11,5,41,955,-3043,-1167,4854,737,-948,7,
619,7,28,2023,11,5,41,965,-41,-1471,6001,458,-695,-132,
620,7,28,2023,11,5,41,975,-1215,-663,5751,142,-273,-176,
621,7,28,2023,11,5,41,985,-2286,-301,5015,-149,106,-244,
622,7,28,2023,11,5,41,995,-3538,-489,4004,-339,535,-245,
623,7,28,2023,11,5,42,5,-2873,-542,4235,-470,830,-256,
624,7,28,2023,11,5,42,15,-1685,-1213,4373,-518,954,-358,
625,7,28,2023,11,5,42,25,-1569,-1688,4751,-418,1172,-375,
626,7,28,2023,11,5,42,35,-3111,-1697,4169,-272,1347,-269,
627,7,28,2023,11,5,42,45,-1168,-1372,4792,-286,1738,-177,
628,7,28,2023,11,5,42,55,-2044,-996,4364,-365,2329,-101,
629,7,28,2023,11,5,42,65,-3236,-18,3916,-561,3399,-105,
630,7,28,2023,11,5,42,75,-1607,491,4809,-1224,5375,-221,
631,7,28,2023,11,5,42,85,-647,-2186,5206,-2042,8000,-65,
632,7,28,2023,11,5,42,95,-111,-2369,6159,-1659,10400,628,
633,7,28,2023,11,5,42,105,-449,-1588,4307,-1374,12070,1696,
634,7,28,2023,11,5,42,115,-580,-772,4742,-529,13395,2769,
635,7,28,2023,11,5,42,125,-2576,-1532,3262,-92,14212,3674,
636,7,28,2023,11,5,42,135,-3781,830,2290,-250,15271,3764,
637,7,28,2023,11,5,42,145,-4439,-2755,4166,-1652,16107,3533,
638,7,28,2023,11,5,42,155,-4614,-1209,3835,-1802,15353,3502,
639,7,28,2023,11,5,42,165,-10069,-1864,5217,-2867,14113,3300,
640,7,28,2023,11,5,42,175,-9370,-1685,3809,-3090,11382,3388,
641,7,28,2023,11,5,42,185,-7590,-2422,4160,-2107,8474,4042,
642,7,28,2023,11,5,42,195,-4777,-1289,3312,-648,6935,4699,
643,7,28,2023,11,5,42,205,-3453,745,5135,-23,6721,5329,
644,7,28,2023,11,5,42,215,-6562,292,7333,-412,5858,6408,
645,7,28,2023,11,5,42,225,-5947,-2770,8098,-214,3705,6963,
646,7,28,2023,11,5,42,235,-1545,-2516,5416,748,2420,7196,
647,7,28,2023,11,5,42,245,-2456,-2066,5922,1305,3382,7191,
648,7,28,2023,11,5,42,255,-3431,-3008,6383,615,4321,6277,
649,7,28,2023,11,5,42,265,-3530,-4810,6330,173,4975,5065,
650,7,28,2023,11,5,42,275,-3518,-5430,6742,896,5566,4097,
651,7,28,2023,11,5,42,285,-3619,-5018,7555,1958,6106,3407,
652,7,28,2023,11,5,42,295,-3701,-4631,8365,2437,6389,2804,
653,7,28,2023,11,5,42,305,-3975,-4848,8972,2253,6138,2199,
654,7,28,2023,11,5,42,315,-4448,-5588,9333,1911,5050,1599,
655,7,28,2023,11,5,42,325,-4050,-6195,9211,1936,3077,983,
656,7,28,2023,11,5,42,335,-2590,-5932,8464,2292,738,400,
657,7,28,2023,11,5,42,345,-1068,-4699,7473,2293,-1348,-144,
658,7,28,2023,11,5,42,355,135,-3717,6370,1529,-2914,-733,
659,7,28,2023,11,5,42,365,925,-3536,5312,410,-4012,-1271,
660,7,28,2023,11,5,42,375,1276,-3638,4707,-466,-4849,-1677,
661,7,28,2023,11,5,42,385,1164,-3643,4730,-934,-5741,-2109,
662,7,28,2023,11,5,42,395,570,-3483,5079,-1227,-6903,-2728,
663,7,28,2023,11,5,42,405,-413,-3059,5351,-1547,-8317,-3561,
664,7,28,2023,11,5,42,415,-1301,-2622,5473,-1978,-9789,-4428,
665,7,28,2023,11,5,42,425,-2236,-2515,5460,-2445,-11150,-5130,
666,7,28,2023,11,5,42,435,-3311,-2551,5455,-2689,-12390,-5638,
667,7,28,2023,11,5,42,445,-4064,-2361,5432,-2624,-13508,-6026,
668,7,28,2023,11,5,42,455,-4074,-1863,5356,-2466,-14376,-6293,
669,7,28,2023,11,5,42,465,-4165,-1528,5354,-2582,-14825,-6456,
670,7,28,2023,11,5,42,475,-4814,-1675,5595,-2880,-14899,-6617,
671,7,28,2023,11,5,42,485,-6090,-2445,6520,-2961,-14808,-6898,
672,7,28,2023,11,5,42,495,-7691,-2423,7206,-2655,-14983,-7334,
673,7,28,2023,11,5,42,505,-8438,-1395,7270,-2190,-15145,-8104,
674,7,28,2023,11,5,42,515,-9650,-259,7288,-2093,-14661,-8865,
675,7,28,2023,11,5,42,525,-11373,644,7366,-1956,-13600,-9369,
676,7,28,2023,11,5,42,535,-14392,1714,7286,-1480,-12273,-9482,
677,7,28,2023,11,5,42,545,-18555,2478,6104,-678,-11517,-8867,
678,7,28,2023,11,5,42,555,-19282,3626,2390,405,-12116,-7058,
679,7,28,2023,11,5,42,565,-16593,4948,-2954,1164,-12628,-4071,
680,7,28,2023,11,5,42,575,-15531,6127,-7705,622,-11258,-671,
681,7,28,2023,11,5,42,595,-18774,7355,-11654,-3520,-4723,1964,
682,7,28,2023,11,5,42,605,-17458,3465,-12259,-2645,-1689,696,
683,7,28,2023,11,5,42,615,-15564,3202,-10731,2296,558,191,
684,7,28,2023,11,5,42,625,-13748,5884,-7809,5523,2210,398,
685,7,28,2023,11,5,42,635,-10140,4640,-6770,4473,3644,232,
686,7,28,2023,11,5,42,645,-6315,5184,-7594,2716,5926,113,
687,7,28,2023,11,5,42,655,-1973,2669,-10588,-544,10611,1715,
688,7,28,2023,11,5,42,665,-11791,-8582,980,-399,16101,5781,
689,7,28,2023,11,5,42,675,-31440,-15462,21527,4209,12789,8178,
690,7,28,2023,11,5,42,685,-8081,11060,10496,5496,-454,3115,
691,7,28,2023,11,5,42,695,1734,837,8025,2048,-1847,1960,
692,7,28,2023,11,5,42,705,-7953,-5678,7882,1765,-942,1578,
693,7,28,2023,11,5,42,715,-714,-714,4970,1579,-1087,693,
694,7,28,2023,11,5,42,725,113,1644,3663,1037,-390,793,
695,7,28,2023,11,5,42,735,-5173,1919,2709,526,-80,389,
696,7,28,2023,11,5,42,745,-4596,-813,3264,56,-53,-306,
697,7,28,2023,11,5,42,755,-1539,-2113,4908,-46,-347,-342,
698,7,28,2023,11,5,42,765,-768,-1588,5399,-61,-118,-110,
699,7,28,2023,11,5,42,775,-1374,-1141,4311,-146,476,-22,
700,7,28,2023,11,5,42,785,-1880,-971,5112,-113,790,-61,
701,7,28,2023,11,5,42,795,-2561,-1067,4399,-190,867,-86,
702,7,28,2023,11,5,42,805,-4075,-1094,4301,-157,1459,10,
703,7,28,2023,11,5,42,815,-2829,-738,4360,-174,2137,61,
704,7,28,2023,11,5,42,825,-1578,-500,5081,-534,3090,12,
705,7,28,2023,11,5,42,835,-440,-167,5771,-1093,4605,-72,
706,7,28,2023,11,5,42,845,-855,-1456,5710,-1718,7011,28,
707,7,28,2023,11,5,42,855,-540,-1257,5922,-1732,9699,414,
708,7,28,2023,11,5,42,865,-2365,-584,4335,-1442,12017,1255,
709,7,28,2023,11,5,42,875,-1654,480,4472,-990,14022,1953,
710,7,28,2023,11,5,42,885,-890,-1501,3498,-308,14963,2488,
711,7,28,2023,11,5,42,895,-1273,-897,4413,371,15913,2658,
712,7,28,2023,11,5,42,905,-3434,-1894,2929,-543,16910,2389,
713,7,28,2023,11,5,42,915,-3911,-2367,4547,-634,17012,2650,
714,7,28,2023,11,5,42,925,-7296,-1330,2260,-1318,16482,2968,
715,7,28,2023,11,5,42,935,-13473,-737,3243,-1685,15090,2948,
716,7,28,2023,11,5,42,945,-11440,-1404,2697,-1188,11366,2939,
717,7,28,2023,11,5,42,955,-6953,1047,2227,337,8265,3437,
718,7,28,2023,11,5,42,965,-5246,4035,2624,342,7977,4734,
719,7,28,2023,11,5,42,975,-7787,2411,5951,-1294,8709,6527,
720,7,28,2023,11,5,42,985,-11967,-2635,8974,-2150,7567,7547,
721,7,28,2023,11,5,42,995,-6618,-3916,8696,-1091,5437,7718,
722,7,28,2023,11,5,43,5,-4450,-2390,8164,-375,5354,7785,
723,7,28,2023,11,5,43,15,-5290,-3042,9277,-1434,6283,7236,
724,7,28,2023,11,5,43,25,-4913,-5476,9151,-2655,6535,6449,
725,7,28,2023,11,5,43,35,-4640,-6597,9175,-2284,6343,6011,
726,7,28,2023,11,5,43,45,-4629,-6131,9580,-1170,5923,5728,
727,7,28,2023,11,5,43,55,-4388,-5396,9944,-680,5330,5298,
728,7,28,2023,11,5,43,65,-3572,-5432,9802,-930,4564,4703,
729,7,28,2023,11,5,43,75,-2850,-6042,9260,-1175,3534,4144,
730,7,28,2023,11,5,43,85,-2476,-6465,8619,-989,2083,3677,
731,7,28,2023,11,5,43,95,-1795,-6312,7759,-582,229,3196,
732,7,28,2023,11,5,43,105,-808,-5790,6595,-374,-1619,2612,
733,7,28,2023,11,5,43,115,455,-5533,5379,-424,-3113,1938,
734,7,28,2023,11,5,43,125,1112,-5438,4471,-551,-4161,1111,
735,7,28,2023,11,5,43,135,1357,-5506,3895,-637,-4978,55,
736,7,28,2023,11,5,43,145,1517,-5487,3758,-639,-5713,-1291,
737,7,28,2023,11,5,43,155,1029,-4973,4244,-689,-6382,-2948,
738,7,28,2023,11,5,43,165,-74,-4161,4924,-1109,-7230,-4883,
739,7,28,2023,11,5,43,175,-1429,-3772,5281,-1821,-8407,-6761,
740,7,28,2023,11,5,43,185,-2516,-3733,5138,-2215,-9874,-8191,
741,7,28,2023,11,5,43,195,-3350,-3670,4804,-1893,-11395,-9004,
742,7,28,2023,11,5,43,205,-3895,-3102,4631,-1111,-12729,-9249,
743,7,28,2023,11,5,43,215,-4257,-2280,4788,-554,-13745,-9202,
744,7,28,2023,11,5,43,225,-4489,-1645,5404,-615,-14443,-9100,
745,7,28,2023,11,5,43,235,-5506,-1875,6037,-1191,-14943,-8996,
746,7,28,2023,11,5,43,245,-6515,-2622,6480,-1564,-15585,-8748,
747,7,28,2023,11,5,43,255,-7289,-2395,7432,-1511,-16238,-8326,
748,7,28,2023,11,5,43,265,-8880,-2690,8647,-1818,-16749,-7812,
749,7,28,2023,11,5,43,275,-11757,-3254,8701,-2514,-17316,-7350,
750,7,28,2023,11,5,43,285,-14518,-2189,7701,-2838,-17459,-7602,
751,7,28,2023,11,5,43,295,-16248,-652,6594,-3176,-16486,-8533,
752,7,28,2023,11,5,43,305,-17959,340,4823,-3362,-14773,-9461,
753,7,28,2023,11,5,43,315,-20548,934,2666,-2796,-13348,-9232,
754,7,28,2023,11,5,43,325,-20494,4295,101,-1951,-12834,-7213,
755,7,28,2023,11,5,43,335,-18213,9483,-3760,-3083,-11739,-4597,
756,7,28,2023,11,5,43,345,-19154,10232,-9298,-5381,-9016,-2720,
757,7,28,2023,11,5,43,355,-20469,9682,-13682,-4515,-5859,-1565,
758,7,28,2023,11,5,43,365,-20368,10392,-14693,-337,-2682,-825,
759,7,28,2023,11,5,43,375,-17762,10323,-12879,3099,23,435,
760,7,28,2023,11,5,43,385,-15889,8720,-8884,4255,2300,1641,
761,7,28,2023,11,5,43,395,-14067,8683,-6820,4249,4049,1839,
762,7,28,2023,11,5,43,405,-9490,8572,-10920,2807,6886,3713,
763,7,28,2023,11,5,43,415,-1750,-2121,-836,1864,11750,8958,
764,7,28,2023,11,5,43,425,-22158,-15366,12905,2028,13690,11442,
765,7,28,2023,11,5,43,435,-31143,-9919,15368,6599,7224,5888,
766,7,28,2023,11,5,43,455,-5453,-2675,6517,2455,-1721,3203,
767,7,28,2023,11,5,43,465,-7929,-344,3585,1862,-977,1283,
768,7,28,2023,11,5,43,475,170,1121,1944,1252,-683,474,
769,7,28,2023,11,5,43,485,-2549,575,2633,802,-359,590,
770,7,28,2023,11,5,43,495,-1428,-846,5090,344,-537,9,
771,7,28,2023,11,5,43,505,-2585,-1902,4387,110,-813,-348,
772,7,28,2023,11,5,43,515,-5144,-497,5299,263,-411,140,
773,7,28,2023,11,5,43,525,-1772,-11,4742,11,26,108,
774,7,28,2023,11,5,43,535,-1710,-541,5165,-242,493,-95,
775,7,28,2023,11,5,43,545,-1313,-1016,4557,-372,720,-221,
776,7,28,2023,11,5,43,555,-1671,-1892,5287,-366,1287,-179,
777,7,28,2023,11,5,43,565,-3361,-1348,4681,-363,1628,-85,
778,7,28,2023,11,5,43,575,-4534,-361,4619,-378,2313,25,
779,7,28,2023,11,5,43,585,-1902,-324,5005,-694,3382,-102,
780,7,28,2023,11,5,43,595,-68,-111,5152,-1245,5431,-235,
781,7,28,2023,11,5,43,605,-238,-1646,5373,-1961,8402,-140,
782,7,28,2023,11,5,43,615,141,-1915,6676,-1646,11283,621,
783,7,28,2023,11,5,43,625,-885,-693,5309,-1413,13436,1599,
784,7,28,2023,11,5,43,635,-2651,176,3401,-900,15166,2653,
785,7,28,2023,11,5,43,645,-1715,-466,4016,510,16533,3370,
786,7,28,2023,11,5,43,655,-2038,-1571,3994,38,17870,3031,
787,7,28,2023,11,5,43,665,-4232,-3052,4753,-232,18626,3017,
788,7,28,2023,11,5,43,675,-7421,-2525,4318,-205,17730,3308,
789,7,28,2023,11,5,43,685,-12895,-781,3130,545,15237,3780,
790,7,28,2023,11,5,43,695,-12571,-1423,2226,1109,11289,3831,
791,7,28,2023,11,5,43,705,-6386,1529,1501,2106,8064,3765,
792,7,28,2023,11,5,43,715,-3920,4682,3523,2050,8045,5110,
793,7,28,2023,11,5,43,725,-9119,2736,7789,360,8391,7202,
794,7,28,2023,11,5,43,735,-9692,-1271,10188,-929,6241,8274,
795,7,28,2023,11,5,43,745,-4378,-2123,8216,-1079,4479,9040,
796,7,28,2023,11,5,43,755,-5080,-1905,8774,-773,5137,9873,
797,7,28,2023,11,5,43,765,-5600,-3487,9156,-1387,5683,9680,
798,7,28,2023,11,5,43,775,-5005,-5840,8998,-1551,5824,9113,
799,7,28,2023,11,5,43,785,-3920,-6978,9115,-448,5898,8611,
800,7,28,2023,11,5,43,795,-3550,-6697,9663,980,6060,7911,
801,7,28,2023,11,5,43,805,-4107,-6147,10348,1525,6119,6787,
802,7,28,2023,11,5,43,815,-4386,-6560,10681,1124,5795,5456,
803,7,28,2023,11,5,43,825,-4722,-7675,10671,636,4940,4315,
804,7,28,2023,11,5,43,835,-4908,-8572,10146,634,3220,3351,
805,7,28,2023,11,5,43,845,-3498,-8741,9103,1169,770,2359,
806,7,28,2023,11,5,43,855,-1353,-7791,7690,1697,-1501,1423,
807,7,28,2023,11,5,43,865,37,-6493,6207,1517,-2943,477,
808,7,28,2023,11,5,43,875,781,-5884,5054,680,-3696,-619,
809,7,28,2023,11,5,43,885,923,-5913,4607,-349,-4252,-1908,
810,7,28,2023,11,5,43,895,509,-5841,4821,-1134,-4929,-3418,
811,7,28,2023,11,5,43,905,-350,-5360,5415,-1639,-5979,-5179,
812,7,28,2023,11,5,43,915,-960,-4089,5804,-2113,-7442,-6973,
813,7,28,2023,11,5,43,925,-1397,-2496,5974,-2841,-8930,-8516,
814,7,28,2023,11,5,43,935,-2616,-1636,6140,-3817,-10242,-9590,
815,7,28,2023,11,5,43,945,-3965,-1539,6192,-4429,-11668,-10011,
816,7,28,2023,11,5,43,955,-4865,-1168,6307,-4239,-13148,-9786,
817,7,28,2023,11,5,43,965,-5462,-453,6537,-3767,-14405,-9184,
818,7,28,2023,11,5,43,975,-5845,-60,6804,-3549,-15348,-8521,
819,7,28,2023,11,5,43,985,-6014,-142,7174,-3490,-15982,-7958,
820,7,28,2023,11,5,43,995,-6169,49,7548,-3440,-16460,-7539,
821,7,28,2023,11,5,44,5,-6879,369,8455,-3648,-16705,-7320,
822,7,28,2023,11,5,44,15,-9453,-568,8941,-4192,-16959,-7150,
823,7,28,2023,11,5,44,25,-12170,530,8132,-4061,-17296,-7569,
824,7,28,2023,11,5,44,35,-14886,1589,6725,-3867,-16941,-8864,
825,7,28,2023,11,5,44,45,-17525,1475,4327,-2949,-15647,-10610,
826,7,28,2023,11,5,44,55,-21446,1788,882,-268,-13881,-11772,
827,7,28,2023,11,5,44,65,-24280,2413,-2528,3004,-12524,-10777,
828,7,28,2023,11,5,44,75,-24200,4518,-5692,4355,-11792,-7424,
829,7,28,2023,11,5,44,85,-21706,7894,-9480,1929,-10364,-3795,
830,7,28,2023,11,5,44,95,-19915,8256,-13475,-2745,-6864,-2164,
831,7,28,2023,11,5,44,105,-19232,5108,-14343,-4304,-2378,-2425,
832,7,28,2023,11,5,44,115,-18246,3855,-12638,-800,1026,-3080,
833,7,28,2023,11,5,44,125,-16301,6723,-10184,3715,2953,-2998,
834,7,28,2023,11,5,44,135,-14158,10567,-10071,4153,4744,-2003,
835,7,28,2023,11,5,44,145,-13896,9838,-16140,424,8310,850,
836,7,28,2023,11,5,44,155,-7171,-1916,-6556,-377,14171,6344,
837,7,28,2023,11,5,44,165,-27199,-15867,18812,2994,15507,10560,
838,7,28,2023,11,5,44,175,-25602,-7933,13460,6104,4766,5473,
839,7,28,2023,11,5,44,185,2334,11329,11532,4150,-384,2089,
840,7,28,2023,11,5,44,195,-5303,-4286,7564,2356,-1296,3356,
841,7,28,2023,11,5,44,205,-4905,-469,4899,1967,-1189,1198,
842,7,28,2023,11,5,44,215,1511,63,2240,1518,-822,727,
843,7,28,2023,11,5,44,225,-5179,1944,2323,1044,-279,778,
844,7,28,2023,11,5,44,235,-5806,868,4061,443,-373,62,
845,7,28,2023,11,5,44,245,-1355,-1781,4852,29,-809,-497,
846,7,28,2023,11,5,44,255,-112,-2287,6195,-78,-549,-352,
847,7,28,2023,11,5,44,265,-1735,-1207,5354,-192,186,-89,
848,7,28,2023,11,5,44,275,-2365,-754,5283,-352,651,-57,
849,7,28,2023,11,5,44,285,-4511,-588,4540,-414,1011,-122,
850,7,28,2023,11,5,44,295,-2963,-1271,4584,-486,1663,-157,
851,7,28,2023,11,5,44,315,-557,-768,4842,-630,2895,-89,
852,7,28,2023,11,5,44,325,-1388,-602,5883,-1191,4599,-161,
853,7,28,2023,11,5,44,335,-1172,-1310,5449,-2007,7058,-98,
854,7,28,2023,11,5,44,345,-2416,-1461,5368,-1913,10265,638,
855,7,28,2023,11,5,44,355,-4,-1138,5800,-1518,13216,1498,
856,7,28,2023,11,5,44,365,840,583,6356,-783,15255,2293,
857,7,28,2023,11,5,44,375,-1314,-1154,4440,-439,16475,3120,
858,7,28,2023,11,5,44,385,-3087,-321,4750,-710,17858,3046,
859,7,28,2023,11,5,44,395,-6133,-2022,2226,-1467,18304,2435,
860,7,28,2023,11,5,44,405,-9459,-2373,2232,-527,17702,3099,
861,7,28,2023,11,5,44,415,-15999,-254,3236,880,14692,4196,
862,7,28,2023,11,5,44,425,-11654,5365,-1062,236,9849,4970,
863,7,28,2023,11,5,44,435,-8885,6937,931,-2015,8173,6962,
864,7,28,2023,11,5,44,445,-9998,3308,4184,-3732,7479,9841,
865,7,28,2023,11,5,44,455,-12687,-2303,8623,-2984,5829,11857,
866,7,28,2023,11,5,44,465,-5374,-2499,7108,-1847,4113,12538,
867,7,28,2023,11,5,44,475,-6012,-3106,8101,-1407,5636,12964,
868,7,28,2023,11,5,44,485,-8034,-5861,10116,-1294,7012,12611,
869,7,28,2023,11,5,44,495,-8241,-8532,10572,-633,6858,11705,
870,7,28,2023,11,5,44,505,-6842,-9852,10390,1071,6178,10412,
871,7,28,2023,11,5,44,515,-3994,-9022,10024,3084,5970,8626,
872,7,28,2023,11,5,44,525,-1929,-7146,10063,4064,6555,6448,
873,7,28,2023,11,5,44,535,-1932,-5915,10554,3538,7534,4148,
874,7,28,2023,11,5,44,545,-2857,-6051,11003,2234,8278,2258,
875,7,28,2023,11,5,44,555,-3706,-7119,11299,1368,8301,1139,
876,7,28,2023,11,5,44,565,-4028,-8003,11336,1645,7151,704,
877,7,28,2023,11,5,44,575,-3207,-7568,11141,2676,4802,553,
878,7,28,2023,11,5,44,585,-1321,-6254,10459,3309,1983,397,
879,7,28,2023,11,5,44,595,402,-5081,8915,2802,-495,58,
880,7,28,2023,11,5,44,605,1483,-4690,7269,1561,-2330,-509,
881,7,28,2023,11,5,44,615,1769,-4936,6088,360,-3727,-1304,
882,7,28,2023,11,5,44,625,1319,-5341,5531,-338,-5086,-2397,
883,7,28,2023,11,5,44,635,738,-5153,5403,-519,-6660,-3816,
884,7,28,2023,11,5,44,645,232,-4289,5483,-606,-8361,-5444,
885,7,28,2023,11,5,44,655,-338,-2950,5617,-993,-9925,-6948,
886,7,28,2023,11,5,44,665,-1114,-1635,5743,-1886,-11221,-8067,
887,7,28,2023,11,5,44,675,-2609,-1280,5878,-3112,-12243,-8777,
888,7,28,2023,11,5,44,685,-4472,-1890,6060,-3978,-13264,-9115,
889,7,28,2023,11,5,44,695,-5922,-2560,6265,-3827,-14482,-9122,
890,7,28,2023,11,5,44,705,-6470,-2182,6654,-2872,-15785,-8877,
891,7,28,2023,11,5,44,715,-6769,-1076,7253,-2231,-16779,-8525,
892,7,28,2023,11,5,44,725,-7332,-887,7786,-2517,-17356,-8189,
893,7,28,2023,11,5,44,735,-7799,-1116,8485,-2999,-17707,-7902,
894,7,28,2023,11,5,44,745,-9175,-1593,10016,-3322,-17937,-7643,
895,7,28,2023,11,5,44,755,-12483,-1549,10914,-3666,-18426,-7337,
896,7,28,2023,11,5,44,765,-16828,-204,9514,-4172,-19036,-7628,
897,7,28,2023,11,5,44,775,-19278,-557,6428,-4702,-19143,-8450,
898,7,28,2023,11,5,44,785,-20039,1021,3239,-3579,-17587,-9926,
899,7,28,2023,11,5,44,795,-22246,3152,-147,-1518,-14665,-11331,
900,7,28,2023,11,5,44,805,-25157,4156,-3039,178,-11998,-10824,
901,7,28,2023,11,5,44,815,-25062,6227,-6115,840,-10740,-7706,
902,7,28,2023,11,5,44,825,-21975,10383,-9738,-810,-9486,-3747,
903,7,28,2023,11,5,44,835,-20775,10079,-13523,-3854,-6514,-1422,
904,7,28,2023,11,5,44,845,-19727,6679,-14431,-3546,-2878,-490,
905,7,28,2023,11,5,44,855,-18933,5895,-12025,549,44,36,
906,7,28,2023,11,5,44,865,-17358,7710,-9231,3333,1693,753,
907,7,28,2023,11,5,44,875,-14339,7050,-8538,2628,3025,1344,
908,7,28,2023,11,5,44,885,-14083,6689,-11586,1406,5731,2683,
909,7,28,2023,11,5,44,895,-1596,-471,-6527,917,10769,5059,
910,7,28,2023,11,5,44,905,-13561,-7351,8853,1510,15159,6777,
911,7,28,2023,11,5,44,915,-28627,-10806,18006,4204,10972,6029,
912,7,28,2023,11,5,44,925,-15727,8129,11540,5514,904,3327,
913,7,28,2023,11,5,44,935,2126,-2231,7745,2552,-1829,2807,
914,7,28,2023,11,5,44,945,-4220,-4082,6207,2541,-1695,1881,
915,7,28,2023,11,5,44,955,-1252,279,4297,2517,-1692,1225,
916,7,28,2023,11,5,44,965,-2687,2684,1950,1656,-1044,980,
917,7,28,2023,11,5,44,975,-8088,1917,3064,977,-553,352,
918,7,28,2023,11,5,44,985,-294,-1902,4537,432,-888,-388,
919,7,28,2023,11,5,44,995,45,-2171,6258,245,-662,-230,
920,7,28,2023,11,5,45,5,-1736,-96,6395,-35,61,-115,
921,7,28,2023,11,5,45,15,-1907,-592,6117,-370,711,-262,
922,7,28,2023,11,5,45,25,-5551,-420,4415,-462,1093,-310,
923,7,28,2023,11,5,45,35,-2798,-285,4665,-538,1691,-445,
924,7,28,2023,11,5,45,45,-1569,-1899,4529,-681,2264,-496,
925,7,28,2023,11,5,45,55,-563,-1786,5083,-743,2900,-479,
926,7,28,2023,11,5,45,65,-1162,-606,6124,-968,4127,-423,
927,7,28,2023,11,5,45,75,-2443,165,5573,-1728,6582,-363,
928,7,28,2023,11,5,45,85,-2244,-1787,5169,-2256,10186,217,
929,7,28,2023,11,5,45,95,728,-1040,6290,-1738,13544,1146,
930,7,28,2023,11,5,45,105,1840,-816,6310,-1510,15936,2122,
931,7,28,2023,11,5,45,115,-246,-1618,4497,-545,17136,3539,
932,7,28,2023,11,5,45,125,-2619,237,4265,-456,18518,3712,
933,7,28,2023,11,5,45,135,-6608,-2956,2189,-1682,19982,3376,
934,7,28,2023,11,5,45,145,-7984,-2109,3319,-1080,19628,3946,
935,7,28,2023,11,5,45,155,-12966,-2036,3503,-1207,16984,4659,
936,7,28,2023,11,5,45,175,-10372,1574,230,-3265,10849,5987,
937,7,28,2023,11,5,45,185,-6427,879,1875,-3649,9517,7467,
938,7,28,2023,11,5,45,195,-9579,-633,4576,-3174,9451,9234,
939,7,28,2023,11,5,45,205,-11235,-3599,9051,-2003,8345,9626,
940,7,28,2023,11,5,45,215,-6428,-3827,8266,-1160,6723,9140,
941,7,28,2023,11,5,45,225,-6398,-4526,8811,-112,7039,9171,
942,7,28,2023,11,5,45,235,-6486,-4286,9463,786,7229,8911,
943,7,28,2023,11,5,45,245,-6508,-4534,9626,803,7216,8117,
944,7,28,2023,11,5,45,255,-5280,-5251,9578,673,7100,7111,
945,7,28,2023,11,5,45,265,-3421,-5534,9582,864,7157,6234,
946,7,28,2023,11,5,45,275,-2918,-5491,9667,1161,7437,5389,
947,7,28,2023,11,5,45,285,-3688,-5504,10038,1381,7547,4551,
948,7,28,2023,11,5,45,295,-4863,-5656,10837,1404,7148,3869,
949,7,28,2023,11,5,45,305,-5532,-5999,11381,1217,5864,3174,
950,7,28,2023,11,5,45,315,-4496,-6513,11079,1166,3617,2333,
951,7,28,2023,11,5,45,325,-2353,-6259,10234,1582,1173,1492,
952,7,28,2023,11,5,45,335,-743,-5663,9055,1990,-763,694,
953,7,28,2023,11,5,45,345,27,-4884,8033,1982,-2347,-16,
954,7,28,2023,11,5,45,355,248,-4418,7208,1428,-3866,-985,
955,7,28,2023,11,5,45,365,-233,-4639,6344,749,-5415,-2271,
956,7,28,2023,11,5,45,375,-252,-4895,5422,630,-7247,-3573,
957,7,28,2023,11,5,45,385,270,-4244,4798,1009,-9102,-4699,
958,7,28,2023,11,5,45,395,150,-2770,4900,1104,-10504,-5613,
959,7,28,2023,11,5,45,405,-975,-1540,5404,238,-11559,-6465,
960,7,28,2023,11,5,45,415,-2562,-1285,5909,-1293,-12636,-7167,
961,7,28,2023,11,5,45,425,-4340,-1787,6253,-2581,-13956,-7508,
962,7,28,2023,11,5,45,435,-6127,-2350,6403,-2979,-15511,-7464,
963,7,28,2023,11,5,45,445,-7012,-2339,6322,-2560,-17172,-7152,
964,7,28,2023,11,5,45,455,-7081,-1772,6290,-2067,-18430,-6704,
965,7,28,2023,11,5,45,465,-7500,-1439,6512,-2218,-18930,-6372,
966,7,28,2023,11,5,45,475,-7895,-1743,6680,-2779,-18975,-6342,
967,7,28,2023,11,5,45,485,-8330,-2430,7694,-3218,-18773,-6561,
968,7,28,2023,11,5,45,495,-11262,-3632,9327,-3567,-18603,-6705,
969,7,28,2023,11,5,45,505,-15027,-2655,9053,-3591,-19084,-7374,
970,7,28,2023,11,5,45,515,-17478,-1388,7131,-3759,-19248,-8800,
971,7,28,2023,11,5,45,525,-18377,23,4742,-3964,-18177,-10159,
972,7,28,2023,11,5,45,535,-20332,2396,2022,-3471,-15725,-11482,
973,7,28,2023,11,5,45,545,-23432,4510,-859,-2425,-13070,-11844,
974,7,28,2023,11,5,45,555,-25359,5525,-3183,-1369,-11475,-10090,
975,7,28,2023,11,5,45,565,-22405,7812,-6260,-1014,-10919,-6201,
976,7,28,2023,11,5,45,575,-21034,10101,-10368,-2322,-9213,-2230,
977,7,28,2023,11,5,45,585,-21576,8517,-14391,-3560,-6185,187,
978,7,28,2023,11,5,45,595,-19530,6787,-14897,-2161,-2911,1595,
979,7,28,2023,11,5,45,605,-17576,6328,-12450,382,188,2115,
980,7,28,2023,11,5,45,615,-16413,4924,-9623,2001,2663,1813,
981,7,28,2023,11,5,45,625,-13705,4598,-7524,3118,4413,995,
982,7,28,2023,11,5,45,635,-10734,7741,-8122,2612,7031,854,
983,7,28,2023,11,5,45,645,844,-1314,-3790,526,11887,3428,
984,7,28,2023,11,5,45,655,-12559,-4691,8181,1931,15161,7640,
985,7,28,2023,11,5,45,665,-31543,-13193,15335,4348,11243,8491,
986,7,28,2023,11,5,45,675,-12138,5715,14664,5701,1255,3112,
987,7,28,2023,11,5,45,685,6576,602,9019,2011,-1739,1898,
988,7,28,2023,11,5,45,695,-10044,-2668,3583,2268,-1279,2227,
989,7,28,2023,11,5,45,705,-5490,1167,2239,2113,-1109,1088,
990,7,28,2023,11,5,45,715,475,980,2730,1269,-647,736,
991,7,28,2023,11,5,45,725,-2598,249,3848,688,-526,329,
992,7,28,2023,11,5,45,735,-754,-1827,5651,291,-788,-169,
993,7,28,2023,11,5,45,745,-4315,-1228,5630,105,-518,-137,
994,7,28,2023,11,5,45,755,-3896,88,6085,-124,296,12,
995,7,28,2023,11,5,45,765,-2327,-723,5240,-373,779,-92,
996,7,28,2023,11,5,45,775,-475,-1332,5012,-454,1071,-275,
997,7,28,2023,11,5,45,785,-1605,-1837,4877,-438,1714,-167,
998,7,28,2023,11,5,45,795,-3069,-1738,4719,-427,2327,-128,
999,7,28,2023,11,5,45,805,-4305,-518,4538,-502,3279,-19,
1000,7,28,2023,11,5,45,815,-2224,45,5783,-1021,5174,-252,
1001,7,28,2023,11,5,45,825,490,-1812,6020,-1746,7912,-257,
1002,7,28,2023,11,5,45,835,-90,-2654,6024,-1493,11230,433,
1003,7,28,2023,11,5,45,845,2022,-1575,6478,-1245,14199,1753,
1004,7,28,2023,11,5,45,855,-1672,616,4291,-1274,16311,3169,
1005,7,28,2023,11,5,45,865,-3164,-431,4430,-375,17771,4430,
1006,7,28,2023,11,5,45,875,-5407,63,5804,-728,19221,3770,
1007,7,28,2023,11,5,45,885,-5995,-3622,4969,-1417,18735,3287,
1008,7,28,2023,11,5,45,895,-12128,-1843,3622,-223,17112,3812,
1009,7,28,2023,11,5,45,905,-14395,1091,-1012,928,13749,4546,
1010,7,28,2023,11,5,45,915,-13305,4236,-2310,1504,11105,5967,
1011,7,28,2023,11,5,45,925,-9740,5284,693,530,9722,7714,
1012,7,28,2023,11,5,45,935,-14650,728,5767,-623,8977,9083,
1013,7,28,2023,11,5,45,945,-10410,-2804,8663,-615,6642,8937,
1014,7,28,2023,11,5,45,955,-4595,-1304,6950,-912,6314,8918,
1015,7,28,2023,11,5,45,965,-6952,-2299,9522,-1758,8635,9209,
1016,7,28,2023,11,5,45,975,-8650,-4181,10962,-2566,9662,9203,
1017,7,28,2023,11,5,45,985,-9069,-5907,11473,-2343,9349,9325,
1018,7,28,2023,11,5,45,995,-7734,-7046,11525,-1183,8525,9442,
1019,7,28,2023,11,5,46,5,-5803,-7063,11708,208,8022,9365,
1020,7,28,2023,11,5,46,15,-4593,-6649,12041,894,7795,8695,
1021,7,28,2023,11,5,46,35,-4236,-7454,12096,413,6869,5968,
1022,7,28,2023,11,5,46,45,-3799,-8478,11648,536,5963,4806,
1023,7,28,2023,11,5,46,55,-3104,-9247,11121,1280,4666,3982,
1024,7,28,2023,11,5,46,65,-2224,-9223,10458,2239,2935,3202,
1025,7,28,2023,11,5,46,75,-879,-8776,9348,2774,857,2155,
1026,7,28,2023,11,5,46,85,536,-8326,7847,2743,-1246,903,
1027,7,28,2023,11,5,46,95,1867,-7780,6523,2332,-2914,-430,
1028,7,28,2023,11,5,46,105,2881,-7518,5519,1792,-3992,-1931,
1029,7,28,2023,11,5,46,115,2754,-7146,5201,1279,-4923,-3703,
1030,7,28,2023,11,5,46,125,1926,-6289,5506,626,-6062,-5614,
1031,7,28,2023,11,5,46,135,708,-5378,5871,-328,-7504,-7509,
1032,7,28,2023,11,5,46,145,-754,-4360,6191,-1293,-9193,-9098,
1033,7,28,2023,11,5,46,155,-2253,-3229,6404,-2177,-10954,-10211,
1034,7,28,2023,11,5,46,165,-3643,-2438,6397,-2890,-12655,-10861,
1035,7,28,2023,11,5,46,175,-4981,-2033,6453,-3189,-14158,-11047,
1036,7,28,2023,11,5,46,185,-6333,-1647,6682,-3008,-15435,-10836,
1037,7,28,2023,11,5,46,195,-7279,-1145,6857,-2594,-16589,-10404,
1038,7,28,2023,11,5,46,205,-7231,-466,7119,-2224,-17483,-9877,
1039,7,28,2023,11,5,46,215,-7512,-260,7592,-2191,-17902,-9364,
1040,7,28,2023,11,5,46,225,-8273,-429,8429,-2314,-18068,-8884,
1041,7,28,2023,11,5,46,235,-9974,-827,10085,-2455,-18201,-8463,
1042,7,28,2023,11,5,46,245,-13066,-1090,10909,-2629,-18780,-8167,
1043,7,28,2023,11,5,46,255,-16117,105,9823,-2489,-19560,-8521,
1044,7,28,2023,11,5,46,265,-18224,153,7455,-2504,-19735,-9057,
1045,7,28,2023,11,5,46,275,-19661,790,4723,-1678,-18658,-9674,
1046,7,28,2023,11,5,46,285,-22531,2206,1666,-89,-16537,-10212,
1047,7,28,2023,11,5,46,295,-25730,2846,-1482,1115,-14494,-9340,
1048,7,28,2023,11,5,46,305,-26604,3935,-5270,1316,-13347,-6093,
1049,7,28,2023,11,5,46,315,-23131,8956,-9535,-805,-12016,-1759,
1050,7,28,2023,11,5,46,325,-21050,10138,-13741,-5357,-8404,326,
1051,7,28,2023,11,5,46,335,-21687,3749,-16112,-5760,-3704,-11,
1052,7,28,2023,11,5,46,345,-21094,4157,-13864,517,-316,-246,
1053,7,28,2023,11,5,46,355,-17580,8907,-11110,4594,1722,-442,
1054,7,28,2023,11,5,46,365,-14113,9770,-12983,3234,4359,-471,
1055,7,28,2023,11,5,46,375,-12528,9263,-18418,1503,9568,2144,
1056,7,28,2023,11,5,46,385,-12951,287,-693,1839,16909,7125,
1057,7,28,2023,11,5,46,395,-30115,-15177,22365,3361,16474,9960,
1058,7,28,2023,11,5,46,405,-21023,-5085,16195,6780,4535,4757,
1059,7,28,2023,11,5,46,415,1955,9277,10510,3644,-876,1965,
1060,7,28,2023,11,5,46,425,-11032,-3561,6357,2293,-1221,3005,
1061,7,28,2023,11,5,46,435,-2415,-926,4789,1962,-1185,814,
1062,7,28,2023,11,5,46,445,1130,744,2718,1389,-600,823,
1063,7,28,2023,11,5,46,455,1321,540,5958,721,-228,523,
1064,7,28,2023,11,5,46,465,-5681,-756,2706,155,-588,-313,
1065,7,28,2023,11,5,46,475,-9471,-167,4719,108,-255,-147,
1066,7,28,2023,11,5,46,485,796,-1359,6075,-319,-133,-275,
1067,7,28,2023,11,5,46,495,301,-1521,5686,-489,547,-288,
1068,7,28,2023,11,5,46,505,-1923,-501,4801,-446,1081,-155,
1069,7,28,2023,11,5,46,515,-2970,-463,5143,-539,1614,-270,
1070,7,28,2023,11,5,46,525,-4242,-1510,4009,-552,2151,-250,
1071,7,28,2023,11,5,46,535,-2613,-1197,4863,-600,2880,-237,
1072,7,28,2023,11,5,46,545,-1045,-911,4985,-1031,4069,-290,
1073,7,28,2023,11,5,46,555,-81,-658,5521,-1746,6316,-307,
1074,7,28,2023,11,5,46,565,-328,-1951,6349,-2074,9188,134,
1075,7,28,2023,11,5,46,575,-1337,-1134,5849,-1706,11896,819,
1076,7,28,2023,11,5,46,585,-1490,286,4134,-1112,14468,1835,
1077,7,28,2023,11,5,46,595,-1295,-549,5042,-144,16377,2731,
1078,7,28,2023,11,5,46,605,-1564,-965,5997,-16,17249,2801,
1079,7,28,2023,11,5,46,615,-4747,-2742,4546,-1233,18006,2463,
1080,7,28,2023,11,5,46,625,-8459,-2765,4742,-727,17403,2569,
1081,7,28,2023,11,5,46,635,-17099,-2599,3122,1041,15041,3733,
1082,7,28,2023,11,5,46,645,-15070,2183,378,2053,10236,4477,
1083,7,28,2023,11,5,46,655,-7551,6812,-217,-91,8024,5414,
1084,7,28,2023,11,5,46,665,-11419,3034,4929,-2579,8528,8079,
1085,7,28,2023,11,5,46,675,-11723,-1557,9758,-2003,6903,10173,
1086,7,28,2023,11,5,46,685,-4791,176,8405,-1489,5739,11230,
1087,7,28,2023,11,5,46,695,-7601,-760,10691,-2057,7529,12463,
1088,7,28,2023,11,5,46,705,-9366,-3494,12053,-2850,7977,13096,
1089,7,28,2023,11,5,46,715,-8267,-6494,12159,-2397,7189,13381,
1090,7,28,2023,11,5,46,725,-6217,-8190,12018,-576,6553,13420,
1091,7,28,2023,11,5,46,735,-4683,-8089,11636,1253,6315,12703,
1092,7,28,2023,11,5,46,745,-3538,-7489,10876,1971,6240,10935,
1093,7,28,2023,11,5,46,755,-2509,-7842,9830,1849,6310,8828,
1094,7,28,2023,11,5,46,765,-1773,-8255,9385,1864,6523,7122,
1095,7,28,2023,11,5,46,775,-1811,-8146,9860,1994,6678,5711,
1096,7,28,2023,11,5,46,785,-1989,-8352,10114,1698,6158,4130,
1097,7,28,2023,11,5,46,795,-1176,-8995,9523,1366,4563,2354,
1098,7,28,2023,11,5,46,805,334,-9116,8694,1504,2408,604,
1099,7,28,2023,11,5,46,815,1619,-8713,8007,1873,492,-981,
1100,7,28,2023,11,5,46,825,2050,-8125,7382,1985,-1075,-2407,
1101,7,28,2023,11,5,46,835,2099,-7479,6917,1723,-2855,-3977,
1102,7,28,2023,11,5,46,845,1632,-6150,6495,1100,-4814,-5658,
1103,7,28,2023,11,5,46,855,1147,-5008,5805,67,-6783,-7103,
1104,7,28,2023,11,5,46,865,759,-4015,5428,-1059,-8549,-8085,
1105,7,28,2023,11,5,46,875,-404,-3025,5652,-2087,-9985,-8777,
1106,7,28,2023,11,5,46,895,-3629,-1903,6536,-3889,-12784,-9832,
1107,7,28,2023,11,5,46,905,-5236,-1961,6737,-4324,-14240,-10074,
1108,7,28,2023,11,5,46,915,-6449,-2116,6859,-4154,-15593,-9958,
1109,7,28,2023,11,5,46,925,-7143,-1564,7276,-3505,-16714,-9543,
1110,7,28,2023,11,5,46,935,-7634,-588,8084,-3218,-17518,-9088,
1111,7,28,2023,11,5,46,945,-8178,-350,8957,-3748,-18066,-8744,
1112,7,28,2023,11,5,46,955,-8797,-631,9950,-4507,-18512,-8398,
1113,7,28,2023,11,5,46,965,-10581,-1255,11691,-5120,-18831,-7955,
1114,7,28,2023,11,5,46,975,-13975,-1807,12576,-5601,-19325,-7479,
1115,7,28,2023,11,5,46,985,-17919,-1587,11556,-5857,-19753,-7760,
1116,7,28,2023,11,5,46,995,-21425,-1314,9337,-5815,-19371,-8676,
1117,7,28,2023,11,5,47,5,-23999,1131,5980,-4964,-17635,-10125,
1118,7,28,2023,11,5,47,15,-26022,2465,1668,-3711,-15145,-11286,
1119,7,28,2023,11,5,47,25,-26080,3949,-3021,-2005,-13167,-10457,
1120,7,28,2023,11,5,47,35,-23808,9096,-8528,-1320,-11083,-7854,
1121,7,28,2023,11,5,47,45,-23704,12270,-13932,-2632,-7332,-5205,
1122,7,28,2023,11,5,47,55,-23898,12391,-16404,-3167,-3051,-3377,
1123,7,28,2023,11,5,47,65,-22857,9973,-15549,-539,354,-1715,
1124,7,28,2023,11,5,47,75,-19751,9767,-12420,3572,2331,553,
1125,7,28,2023,11,5,47,85,-17125,8061,-8611,5108,4075,1741,
1126,7,28,2023,11,5,47,95,-13751,4905,-5775,4779,5732,1585,
1127,7,28,2023,11,5,47,105,-9309,5724,-4395,3601,7921,1353,
1128,7,28,2023,11,5,47,115,6477,-3599,1273,1448,11670,2542,
1129,7,28,2023,11,5,47,125,-3736,-4407,8044,2164,14757,4868,
1130,7,28,2023,11,5,47,135,-25176,-5435,15741,3515,12885,6708,
1131,7,28,2023,11,5,47,145,-16935,4677,14542,5082,843,4766,
1132,7,28,2023,11,5,47,155,6394,-1382,4800,2328,-2728,1606,
1133,7,28,2023,11,5,47,165,-8713,-2906,6197,2700,-1344,2086,
1134,7,28,2023,11,5,47,175,-3319,499,3840,2290,-1525,1172,
1135,7,28,2023,11,5,47,185,135,1413,3041,1242,-667,633,
1136,7,28,2023,11,5,47,195,-506,367,4675,667,-478,171,
1137,7,28,2023,11,5,47,205,-3705,-1073,4266,186,-507,-276,
1138,7,28,2023,11,5,47,215,-5266,-127,5119,35,-134,-181,
1139,7,28,2023,11,5,47,225,-1637,-512,5842,-324,350,-256,
1140,7,28,2023,11,5,47,235,-294,-1723,5040,-509,796,-309,
1141,7,28,2023,11,5,47,245,-2097,-1453,4732,-408,1026,-170,
1142,7,28,2023,11,5,47,255,-1761,-1056,4820,-377,1364,-117,
1143,7,28,2023,11,5,47,265,-4991,-1475,3977,-303,1900,24,
1144,7,28,2023,11,5,47,275,-3185,-1057,4654,-199,2459,113,
1145,7,28,2023,11,5,47,285,-1289,-1364,4808,-470,3392,35,
1146,7,28,2023,11,5,47,295,-411,-723,5233,-983,5343,28,
1147,7,28,2023,11,5,47,305,137,-2380,6192,-1377,8467,431,
1148,7,28,2023,11,5,47,315,-720,-1748,5633,-967,11459,1406,
1149,7,28,2023,11,5,47,325,-2259,-136,4687,-1034,14315,2747,
1150,7,28,2023,11,5,47,335,-703,-585,5792,-1183,15967,3815,
1151,7,28,2023,11,5,47,345,-814,-1998,4893,-79,17026,4624,
1152,7,28,2023,11,5,47,355,-3973,-2542,5120,-700,18866,4613,
1153,7,28,2023,11,5,47,365,-4270,-2636,3864,-438,18893,4652,
1154,7,28,2023,11,5,47,375,-12669,-1296,3261,-254,18112,5665,
1155,7,28,2023,11,5,47,385,-16856,-1654,3636,-703,14639,6219,
1156,7,28,2023,11,5,47,395,-12819,587,1166,-850,10050,5923,
1157,7,28,2023,11,5,47,405,-7996,1777,228,-736,8379,6229,
1158,7,28,2023,11,5,47,415,-12317,307,4529,-140,8652,7449,
1159,7,28,2023,11,5,47,425,-11019,-3044,8501,721,7447,7739,
1160,7,28,2023,11,5,47,435,-5617,-2143,7193,1210,7545,7496,
1161,7,28,2023,11,5,47,445,-8560,-3027,10162,756,10137,7245,
1162,7,28,2023,11,5,47,455,-9482,-5632,11683,-55,10981,6424,
1163,7,28,2023,11,5,47,465,-7864,-7090,12472,813,10673,5915,
1164,7,28,2023,11,5,47,475,-5453,-6151,13351,2556,10414,5697,
1165,7,28,2023,11,5,47,485,-4529,-4652,14209,3057,10212,5255,
1166,7,28,2023,11,5,47,495,-4152,-4424,14522,2133,9444,4752,
1167,7,28,2023,11,5,47,505,-3498,-5132,14414,1169,8009,4786,
1168,7,28,2023,11,5,47,515,-2771,-5553,14252,833,6119,5185,
1169,7,28,2023,11,5,47,525,-2159,-5875,13585,597,3851,5171,
1170,7,28,2023,11,5,47,535,-767,-6454,12061,307,1297,4599,
1171,7,28,2023,11,5,47,545,897,-7039,10330,299,-1053,3770,
1172,7,28,2023,11,5,47,555,1487,-7077,8677,457,-3040,2662,
1173,7,28,2023,11,5,47,565,1883,-6878,7132,503,-4913,1159,
1174,7,28,2023,11,5,47,575,2223,-6261,5965,337,-6552,-583,
1175,7,28,2023,11,5,47,585,2560,-5548,5115,-180,-7932,-2361,
1176,7,28,2023,11,5,47,595,2156,-4987,4752,-1028,-9107,-4030,
1177,7,28,2023,11,5,47,605,742,-4366,4810,-2009,-10247,-5512,
1178,7,28,2023,11,5,47,615,-908,-3896,4991,-2961,-11540,-6770,
1179,7,28,2023,11,5,47,625,-2491,-3330,5121,-3751,-12982,-7759,
1180,7,28,2023,11,5,47,635,-4052,-2758,5320,-4366,-14298,-8497,
1181,7,28,2023,11,5,47,645,-5613,-2544,5519,-4810,-15351,-9064,
1182,7,28,2023,11,5,47,655,-7452,-2530,5830,-4886,-16240,-9485,
1183,7,28,2023,11,5,47,665,-8293,-2445,5955,-4507,-17123,-9787,
1184,7,28,2023,11,5,47,675,-7855,-1996,6221,-3787,-17671,-9967,
1185,7,28,2023,11,5,47,685,-7628,-1003,7013,-3201,-17716,-10113,
1186,7,28,2023,11,5,47,695,-9410,-735,8811,-3268,-17484,-10195,
1187,7,28,2023,11,5,47,705,-12113,-225,10003,-3644,-17677,-10247,
1188,7,28,2023,11,5,47,715,-14174,1350,9948,-3946,-18137,-10666,
1189,7,28,2023,11,5,47,725,-16883,1559,8903,-4061,-17996,-10997,
1190,7,28,2023,11,5,47,735,-19375,2050,6836,-2953,-17121,-10965,
1191,7,28,2023,11,5,47,755,-25455,5196,1712,843,-13967,-8682,
1192,7,28,2023,11,5,47,765,-26051,5361,-2486,978,-13723,-5150,
1193,7,28,2023,11,5,47,775,-22087,7620,-7366,-540,-13389,-611,
1194,7,28,2023,11,5,47,785,-19697,9918,-12379,-3940,-10479,1599,
1195,7,28,2023,11,5,47,795,-20120,5636,-15797,-5228,-5557,462,
1196,7,28,2023,11,5,47,805,-19491,3351,-15015,-604,-1227,-1150,
1197,7,28,2023,11,5,47,815,-17714,7364,-11658,4916,1530,-1923,
1198,7,28,2023,11,5,47,825,-15505,8258,-9112,5575,3512,-2398,
1199,7,28,2023,11,5,47,835,-12720,10532,-7969,3994,5507,-2259,
1200,7,28,2023,11,5,47,845,-4603,6787,-12177,-287,9444,852,
1201,7,28,2023,11,5,47,855,-4558,-7250,-69,-201,15064,8611,
1202,7,28,2023,11,5,47,865,-28575,-14237,12495,2980,15587,12232,
1203,7,28,2023,11,5,47,875,-31941,-10060,18224,6533,8171,5513,
1204,7,28,2023,11,5,47,885,3869,13157,14500,4770,-721,1522,
1205,7,28,2023,11,5,47,895,-8216,-5254,5768,2604,-1758,4101,
1206,7,28,2023,11,5,47,905,-7272,38,4807,2443,-1225,1521,
1207,7,28,2023,11,5,47,915,638,1735,3981,1677,-943,836,
1208,7,28,2023,11,5,47,925,-1208,1707,3681,758,-227,526,
1209,7,28,2023,11,5,47,935,-1525,-1356,4584,173,-428,-305,
1210,7,28,2023,11,5,47,945,-5735,-717,3673,-2,-473,-359,
1211,7,28,2023,11,5,47,955,-2381,-186,5741,-262,-117,-278,
1212,7,28,2023,11,5,47,965,-881,-711,5154,-526,420,-406,
1213,7,28,2023,11,5,47,975,-986,-1811,4983,-639,844,-401,
1214,7,28,2023,11,5,47,985,-1842,-1293,4818,-617,1107,-358,
1215,7,28,2023,11,5,47,995,-2813,-949,4868,-664,1599,-382,
1216,7,28,2023,11,5,48,5,-4114,-1092,4390,-607,2277,-178,
1217,7,28,2023,11,5,48,15,-2101,-1014,5393,-713,3008,-217,
1218,7,28,2023,11,5,48,25,-528,-599,5224,-1115,4333,-280,
1219,7,28,2023,11,5,48,35,-424,-1127,5342,-1940,6940,-177,
1220,7,28,2023,11,5,48,45,509,-2145,6492,-2050,10042,320,
1221,7,28,2023,11,5,48,55,-1899,-958,4394,-1711,12532,1169,
1222,7,28,2023,11,5,48,65,-2051,66,4300,-973,14708,2378,
1223,7,28,2023,11,5,48,75,-420,-1414,5836,-349,16074,3722,
1224,7,28,2023,11,5,48,85,-3416,-1706,4913,-1308,17428,3786,
1225,7,28,2023,11,5,48,95,-6700,-2708,4639,-1600,17406,3414,
1226,7,28,2023,11,5,48,105,-9811,-1047,2093,-929,15478,4162,
1227,7,28,2023,11,5,48,115,-13185,1209,77,-1184,12980,4948,
1228,7,28,2023,11,5,48,125,-11155,1606,707,-1719,11132,6137,
1229,7,28,2023,11,5,48,135,-9650,713,4885,-1331,10309,7922,
1230,7,28,2023,11,5,48,145,-11013,-148,7733,-720,9024,9643,
1231,7,28,2023,11,5,48,155,-10583,-3185,10597,-412,7123,10352,
1232,7,28,2023,11,5,48,165,-5249,-4734,8343,-200,6292,10358,
1233,7,28,2023,11,5,48,175,-6669,-5462,9938,1082,8014,10681,
1234,7,28,2023,11,5,48,185,-7887,-6094,11632,1693,8961,9909,
1235,7,28,2023,11,5,48,195,-7232,-7470,11886,1703,8975,8430,
1236,7,28,2023,11,5,48,205,-4764,-7653,11636,2213,8884,6963,
1237,7,28,2023,11,5,48,215,-3125,-6337,11583,2506,9208,5553,
1238,7,28,2023,11,5,48,225,-2996,-5507,11755,1829,9606,4122,
1239,7,28,2023,11,5,48,235,-3592,-5887,12114,718,9566,2965,
1240,7,28,2023,11,5,48,245,-3752,-7054,12351,95,8610,2286,
1241,7,28,2023,11,5,48,255,-2607,-7619,12066,486,6601,1933,
1242,7,28,2023,11,5,48,265,-594,-6971,11334,1325,4008,1470,
1243,7,28,2023,11,5,48,275,1408,-6078,10499,1794,1536,682,
1244,7,28,2023,11,5,48,285,2110,-5436,9372,1616,-585,-127,
1245,7,28,2023,11,5,48,295,2569,-4864,8041,1032,-2604,-980,
1246,7,28,2023,11,5,48,305,2730,-4637,6859,492,-4496,-1927,
1247,7,28,2023,11,5,48,315,2484,-4248,5932,197,-6448,-2837,
1248,7,28,2023,11,5,48,325,2247,-3124,5331,-125,-8356,-3569,
1249,7,28,2023,11,5,48,335,1560,-1997,5116,-1030,-9929,-4248,
1250,7,28,2023,11,5,48,345,129,-1584,5173,-2363,-11225,-4875,
1251,7,28,2023,11,5,48,355,-1613,-1543,5450,-3483,-12526,-5283,
1252,7,28,2023,11,5,48,365,-3640,-1564,5848,-4189,-13959,-5481,
1253,7,28,2023,11,5,48,375,-5197,-1839,5894,-4581,-15454,-5617,
1254,7,28,2023,11,5,48,385,-5894,-2223,5648,-4599,-16728,-5748,
1255,7,28,2023,11,5,48,395,-6434,-2270,5766,-4358,-17432,-5995,
1256,7,28,2023,11,5,48,405,-7264,-2366,6247,-4177,-17655,-6510,
1257,7,28,2023,11,5,48,415,-7938,-2726,7010,-4055,-17739,-7215,
1258,7,28,2023,11,5,48,425,-8815,-2783,8139,-3969,-17764,-7955,
1259,7,28,2023,11,5,48,435,-11375,-3868,9677,-4073,-17821,-8599,
1260,7,28,2023,11,5,48,445,-15326,-3630,9798,-3863,-18302,-9384,
1261,7,28,2023,11,5,48,455,-19256,-2055,8410,-3710,-18649,-10742,
1262,7,28,2023,11,5,48,465,-21031,-401,5867,-3677,-17874,-12121,
1263,7,28,2023,11,5,48,475,-22503,2635,2379,-3270,-15608,-13387,
1264,7,28,2023,11,5,48,485,-26265,4621,-851,-2400,-12587,-13918,
1265,7,28,2023,11,5,48,495,-28241,5283,-3715,-708,-10679,-12110,
1266,7,28,2023,11,5,48,505,-23481,9734,-7819,478,-9994,-7534,
1267,7,28,2023,11,5,48,515,-20726,13734,-12325,-1858,-7752,-2625,
1268,7,28,2023,11,5,48,525,-20934,10733,-14807,-4869,-4145,512,
1269,7,28,2023,11,5,48,535,-19910,6688,-13299,-3381,-985,1868,
1270,7,28,2023,11,5,48,545,-17578,5901,-10392,954,1111,2127,
1271,7,28,2023,11,5,48,555,-15248,6281,-7891,3317,2707,2034,
1272,7,28,2023,11,5,48,565,-13120,4608,-6446,2976,4428,1950,
1273,7,28,2023,11,5,48,575,-5973,2099,-3874,2995,7182,3023,
1274,7,28,2023,11,5,48,585,948,-4326,7519,3072,10189,4250,
1275,7,28,2023,11,5,48,595,-7909,-1219,7648,2779,10688,4779,
1276,7,28,2023,11,5,48,615,-23172,-3956,20506,4609,5766,4353,
1277,7,28,2023,11,5,48,625,3266,-3173,5967,2902,-1470,2095,
1278,7,28,2023,11,5,48,635,-1932,-566,3331,2391,-1364,1946,
1279,7,28,2023,11,5,48,645,-9091,3006,1263,2181,-1078,1458,
1280,7,28,2023,11,5,48,655,-2234,1989,3376,1178,-765,561,
1281,7,28,2023,11,5,48,665,-905,-1171,4312,423,-853,-267,
1282,7,28,2023,11,5,48,675,-2192,-2623,5279,229,-801,-321,
1283,7,28,2023,11,5,48,685,333,-1119,6253,133,-508,-135,
1284,7,28,2023,11,5,48,695,-4921,889,4813,-93,89,-116,
1285,7,28,2023,11,5,48,705,-3821,-579,3925,-440,625,-274,
1286,7,28,2023,11,5,48,715,-1874,-1173,4327,-628,780,-412,
1287,7,28,2023,11,5,48,725,-429,-1002,4843,-643,1048,-475,
1288,7,28,2023,11,5,48,735,-2101,-1762,4991,-529,1566,-393,
1289,7,28,2023,11,5,48,745,-2968,-1210,5045,-466,1979,-413,
1290,7,28,2023,11,5,48,755,-4378,-524,4365,-481,2837,-309,
1291,7,28,2023,11,5,48,765,-2179,-24,4936,-829,4425,-539,
1292,7,28,2023,11,5,48,775,-67,-13,5634,-1577,6758,-846,
1293,7,28,2023,11,5,48,785,68,-2012,6071,-2109,9923,-586,
1294,7,28,2023,11,5,48,795,390,-2342,7009,-1536,12897,629,
1295,7,28,2023,11,5,48,805,-453,-1411,4475,-1193,15365,2174,
1296,7,28,2023,11,5,48,815,-2733,-1606,3827,48,17702,4035,
1297,7,28,2023,11,5,48,825,-1720,-1864,4678,389,18971,4669,
1298,7,28,2023,11,5,48,835,-3181,-3030,5089,-944,20013,4466,
1299,7,28,2023,11,5,48,845,-6528,-1590,6037,-1701,20185,4758,
1300,7,28,2023,11,5,48,855,-13564,-1552,5504,-2189,18690,5075,
1301,7,28,2023,11,5,48,865,-15967,-878,2597,-1537,14849,5617,
1302,7,28,2023,11,5,48,875,-12580,3763,2641,-625,10799,6517,
1303,7,28,2023,11,5,48,885,-9575,9191,4602,-1866,8943,9609,
1304,7,28,2023,11,5,48,895,-15337,4222,7734,-5357,7757,13694,
1305,7,28,2023,11,5,48,905,-17099,-5354,8555,-7103,4636,14949,
1306,7,28,2023,11,5,48,915,-6435,-8705,4109,-5158,2670,14155,
1307,7,28,2023,11,5,48,925,-5035,-8386,4990,-545,5170,13085,
1308,7,28,2023,11,5,48,935,-6401,-6784,8617,2653,7926,10968,
1309,7,28,2023,11,5,48,945,-5843,-6480,10653,3020,8942,8049,
1310,7,28,2023,11,5,48,955,-4489,-6673,10892,2532,8698,5551,
1311,7,28,2023,11,5,48,965,-3338,-6235,10211,2333,8049,3940,
1312,7,28,2023,11,5,48,975,-2473,-5629,9633,2335,7502,3044,
1313,7,28,2023,11,5,48,985,-1995,-5824,9641,2328,7090,2615,
1314,7,28,2023,11,5,48,995,-2097,-6345,10090,2513,6402,2510,
1315,7,28,2023,11,5,49,5,-2379,-6706,10507,2806,4795,2400,
1316,7,28,2023,11,5,49,15,-1501,-6915,10224,3004,2140,2003,
1317,7,28,2023,11,5,49,25,481,-6800,9187,2982,-643,1463,
1318,7,28,2023,11,5,49,35,2043,-6247,7899,2648,-2730,974,
1319,7,28,2023,11,5,49,45,2533,-5895,6897,1834,-4179,223,
1320,7,28,2023,11,5,49,55,2249,-6254,6205,909,-5377,-952,
1321,7,28,2023,11,5,49,65,1514,-6400,5767,370,-6779,-2409,
1322,7,28,2023,11,5,49,75,1023,-5742,5401,117,-8413,-3971,
1323,7,28,2023,11,5,49,85,451,-4725,5250,-270,-9916,-5499,
1324,7,28,2023,11,5,49,95,-810,-3746,5512,-946,-11176,-6883,
1325,7,28,2023,11,5,49,105,-2404,-3132,5897,-1778,-12386,-8008,
1326,7,28,2023,11,5,49,115,-4133,-3110,6150,-2439,-13655,-8822,
1327,7,28,2023,11,5,49,125,-5581,-3308,6284,-2483,-14968,-9230,
1328,7,28,2023,11,5,49,135,-6369,-2958,6531,-1994,-16146,-9330,
1329,7,28,2023,11,5,49,145,-6873,-2141,7164,-1580,-16964,-9312,
1330,7,28,2023,11,5,49,155,-7910,-1726,8075,-1756,-17515,-9257,
1331,7,28,2023,11,5,49,165,-8733,-1959,8901,-2199,-18106,-9093,
1332,7,28,2023,11,5,49,175,-9291,-1683,9880,-2491,-18748,-8697,
1333,7,28,2023,11,5,49,185,-10492,-1111,11602,-3076,-19212,-8078,
1334,7,28,2023,11,5,49,195,-13619,-2385,12799,-4400,-19823,-7083,
1335,7,28,2023,11,5,49,205,-17349,-2261,11493,-5432,-20562,-6426,
1336,7,28,2023,11,5,49,215,-20512,-1425,9237,-6085,-20299,-6976,
1337,7,28,2023,11,5,49,225,-21914,-302,6088,-6144,-18726,-8436,
1338,7,28,2023,11,5,49,235,-23376,955,2396,-4872,-16205,-10031,
1339,7,28,2023,11,5,49,245,-23997,3032,-1036,-2972,-13999,-9793,
1340,7,28,2023,11,5,49,255,-21611,8352,-4400,-2561,-12126,-7469,
1341,7,28,2023,11,5,49,265,-22560,11607,-9073,-4607,-9089,-5004,
1342,7,28,2023,11,5,49,275,-24039,11602,-14130,-5406,-5705,-3649,
1343,7,28,2023,11,5,49,285,-23404,10263,-16425,-2161,-2481,-2535,
1344,7,28,2023,11,5,49,295,-20094,10645,-14871,2267,113,-25,
1345,7,28,2023,11,5,49,305,-17991,9123,-10325,3422,2449,2310,
1346,7,28,2023,11,5,49,315,-15774,4394,-7261,2666,4130,2494,
1347,7,28,2023,11,5,49,325,-10109,2540,-6630,3365,5380,1735,
1348,7,28,2023,11,5,49,335,-3437,3307,-6209,2918,8735,2373,
1349,7,28,2023,11,5,49,345,3963,-7551,1663,2019,13733,5123,
1350,7,28,2023,11,5,49,355,-16952,-866,8714,3442,15874,7352,
1351,7,28,2023,11,5,49,365,-32768,-5251,18424,4865,11540,7290,
1352,7,28,2023,11,5,49,375,-6178,3654,15474,5919,710,3751,
1353,7,28,2023,11,5,49,385,-3044,-1788,6303,3137,-1698,2570,
1354,7,28,2023,11,5,49,395,-8325,-2219,6185,2733,-1077,1975,
1355,7,28,2023,11,5,49,405,-1680,1993,3014,2142,-1007,1229,
1356,7,28,2023,11,5,49,415,-1290,1952,3032,1180,-325,666,
1357,7,28,2023,11,5,49,425,-528,-952,4157,597,-325,62,
1358,7,28,2023,11,5,49,435,-4932,-789,4531,346,-383,-182,
1359,7,28,2023,11,5,49,445,-3886,-428,6055,159,-85,-179,
1360,7,28,2023,11,5,49,455,-1680,-1754,5387,20,397,-114,
1361,7,28,2023,11,5,49,475,-2265,-1178,4429,18,1098,184,
1362,7,28,2023,11,5,49,485,-2130,-793,4394,35,1519,187,
1363,7,28,2023,11,5,49,495,-4369,-507,4461,20,2357,230,
1364,7,28,2023,11,5,49,505,-2466,-413,5406,-323,3624,97,
1365,7,28,2023,11,5,49,515,-556,-1152,5552,-795,5698,111,
1366,7,28,2023,11,5,49,525,223,-1037,5609,-981,8481,351,
1367,7,28,2023,11,5,49,535,-134,-1344,6547,-949,11404,935,
1368,7,28,2023,11,5,49,545,-1759,163,5348,-1053,13491,1510,
1369,7,28,2023,11,5,49,555,-2091,-662,3877,-803,14802,2496,
1370,7,28,2023,11,5,49,565,-1862,-392,3593,441,16228,3172,
1371,7,28,2023,11,5,49,575,-2807,-1302,5141,512,17597,3259,
1372,7,28,2023,11,5,49,585,-3012,-3167,4796,171,18255,3098,
1373,7,28,2023,11,5,49,595,-8339,-1064,4750,286,18104,3120,
1374,7,28,2023,11,5,49,605,-15300,-1075,3790,571,15966,3710,
1375,7,28,2023,11,5,49,615,-14628,-607,4061,2294,11528,4279,
1376,7,28,2023,11,5,49,625,-6778,5375,1481,2653,8152,4149,
1377,7,28,2023,11,5,49,635,-7091,7310,4285,125,8766,6050,
1378,7,28,2023,11,5,49,645,-13671,1172,9031,-2836,8216,8521,
1379,7,28,2023,11,5,49,655,-7381,-2821,7923,-3305,5685,9755,
1380,7,28,2023,11,5,49,665,-4948,-2515,7245,-1913,6057,10772,
1381,7,28,2023,11,5,49,675,-7389,-2962,9760,-1161,7580,11020,
1382,7,28,2023,11,5,49,685,-7600,-5129,10485,-1426,7636,10221,
1383,7,28,2023,11,5,49,695,-6289,-7079,10356,-690,7093,9437,
1384,7,28,2023,11,5,49,705,-5094,-6797,10297,969,6777,8740,
1385,7,28,2023,11,5,49,715,-4545,-5719,10665,1903,6787,7656,
1386,7,28,2023,11,5,49,725,-4529,-5672,11001,1648,6800,6302,
1387,7,28,2023,11,5,49,735,-4569,-6483,11115,1160,6437,5116,
1388,7,28,2023,11,5,49,745,-4371,-7150,11008,1141,5404,4170,
1389,7,28,2023,11,5,49,755,-3573,-7328,10247,1482,3614,3251,
1390,7,28,2023,11,5,49,765,-1873,-7071,8972,1845,1539,2284,
1391,7,28,2023,11,5,49,775,-449,-6505,7772,1878,-163,1424,
1392,7,28,2023,11,5,49,785,336,-6149,6684,1308,-1448,526,
1393,7,28,2023,11,5,49,795,661,-6308,5848,503,-2695,-654,
1394,7,28,2023,11,5,49,805,749,-6431,5108,-40,-4097,-2100,
1395,7,28,2023,11,5,49,815,1461,-5919,4436,-283,-5564,-3619,
1396,7,28,2023,11,5,49,825,1762,-4524,4373,-699,-6728,-5125,
1397,7,28,2023,11,5,49,835,935,-3217,4787,-1732,-7667,-6614,
1398,7,28,2023,11,5,49,845,-264,-2435,5164,-3098,-8743,-7899,
1399,7,28,2023,11,5,49,855,-1715,-2119,5545,-4120,-9986,-8789,
1400,7,28,2023,11,5,49,865,-3470,-1946,5866,-4488,-11411,-9298,
1401,7,28,2023,11,5,49,875,-4798,-1695,5991,-4180,-13030,-9512,
1402,7,28,2023,11,5,49,885,-5452,-1269,5936,-3511,-14574,-9476,
1403,7,28,2023,11,5,49,895,-5702,-837,5782,-2909,-15749,-9261,
1404,7,28,2023,11,5,49,905,-5687,-488,5960,-2577,-16391,-8963,
1405,7,28,2023,11,5,49,915,-6034,-81,6392,-2577,-16665,-8681,
1406,7,28,2023,11,5,49,925,-6309,837,7052,-3045,-16950,-8427,
1407,7,28,2023,11,5,49,935,-7245,1588,8398,-4170,-17087,-8044,
1408,7,28,2023,11,5,49,945,-10421,511,9384,-5747,-17455,-7276,
1409,7,28,2023,11,5,49,955,-14095,146,8726,-6312,-18105,-6785,
1410,7,28,2023,11,5,49,965,-17275,-547,6837,-5947,-18376,-7037,
1411,7,28,2023,11,5,49,975,-19664,415,4195,-4208,-17428,-8527,
1412,7,28,2023,11,5,49,985,-22604,2531,616,-1721,-15362,-10352,
1413,7,28,2023,11,5,49,995,-26271,5314,-2707,371,-13243,-10433,
1414,7,28,2023,11,5,50,5,-26378,8507,-5267,751,-11568,-8056,
1415,7,28,2023,11,5,50,15,-22969,11408,-8466,-1130,-9583,-4802,
1416,7,28,2023,11,5,50,25,-21402,9891,-12793,-2809,-6493,-2827,
1417,7,28,2023,11,5,50,35,-19852,7735,-13977,-637,-3071,-1037,
1418,7,28,2023,11,5,50,45,-18297,9236,-11224,2567,-242,658,
1419,7,28,2023,11,5,50,55,-16765,7795,-8931,2763,1797,1099,
1420,7,28,2023,11,5,50,65,-14839,7852,-9261,2114,3553,1322,
1421,7,28,2023,11,5,50,75,-6172,5323,-9634,327,7277,3310,
1422,7,28,2023,11,5,50,85,-2588,-7477,1526,-218,12340,6402,
1423,7,28,2023,11,5,50,95,-17729,-11350,8498,1870,13595,7740,
1424,7,28,2023,11,5,50,105,-28669,-7588,16049,5426,9452,5135,
1425,7,28,2023,11,5,50,115,-6483,9636,16449,5114,905,2092,
1426,7,28,2023,11,5,50,125,1541,-4117,5767,2068,-1923,2961,
1427,7,28,2023,11,5,50,135,-10319,378,2614,2225,-958,1565,
1428,7,28,2023,11,5,50,145,-2648,1683,1894,1646,-992,757,
1429,7,28,2023,11,5,50,155,53,1147,3751,738,-507,361,
1430,7,28,2023,11,5,50,165,-2126,-876,4834,188,-538,-235,
1431,7,28,2023,11,5,50,175,-875,-2734,5992,-131,-514,-523,
1432,7,28,2023,11,5,50,185,-5640,-945,4965,-217,29,-199,
1433,7,28,2023,11,5,50,195,-2945,318,5538,-430,567,-114,
1434,7,28,2023,11,5,50,205,-1607,-492,4546,-680,910,-346,
1435,7,28,2023,11,5,50,215,-408,-1531,4518,-714,1257,-488,
1436,7,28,2023,11,5,50,225,-1903,-1542,4428,-615,1766,-331,
1437,7,28,2023,11,5,50,235,-3073,-1682,4828,-635,2256,-297,
1438,7,28,2023,11,5,50,245,-4374,-792,4462,-598,2893,-202,
1439,7,28,2023,11,5,50,255,-1814,-339,5303,-957,4384,-324,
1440,7,28,2023,11,5,50,265,423,-226,5516,-1814,6785,-483,
1441,7,28,2023,11,5,50,275,-219,-1792,5432,-2066,9866,-305,
1442,7,28,2023,11,5,50,285,-156,-1991,6429,-1598,12723,571,
1443,7,28,2023,11,5,50,295,-709,-684,4335,-1293,14895,1796,
1444,7,28,2023,11,5,50,305,-3555,-1400,3393,1,16439,3314,
1445,7,28,2023,11,5,50,315,-1869,-1353,4730,275,17511,3797,
1446,7,28,2023,11,5,50,335,-6931,-3139,4674,-478,18250,3881,
1447,7,28,2023,11,5,50,345,-12885,-2654,3180,1010,16351,5162,
1448,7,28,2023,11,5,50,355,-13779,-384,1005,2952,13308,6074,
1449,7,28,2023,11,5,50,365,-10563,3724,-1504,2978,11792,6283,
1450,7,28,2023,11,5,50,375,-10620,4651,2442,1561,12337,7980,
1451,7,28,2023,11,5,50,385,-15826,3145,7368,-685,11973,9676,
1452,7,28,2023,11,5,50,395,-15703,-2461,10779,-2463,9491,10232,
1453,7,28,2023,11,5,50,405,-7776,-3993,7863,-2605,7877,10401,
1454,7,28,2023,11,5,50,415,-7304,-4395,9536,-895,9536,11257,
1455,7,28,2023,11,5,50,425,-6960,-4400,12292,38,10843,11277,
1456,7,28,2023,11,5,50,435,-6452,-5947,13886,-434,10891,10484,
1457,7,28,2023,11,5,50,445,-5588,-7670,13845,-858,9761,9435,
1458,7,28,2023,11,5,50,455,-4542,-8125,13272,-381,8116,8395,
1459,7,28,2023,11,5,50,465,-3441,-7841,12668,345,6453,7183,
1460,7,28,2023,11,5,50,475,-2662,-7775,12205,698,5110,5812,
1461,7,28,2023,11,5,50,485,-2229,-8210,11482,648,3924,4406,
1462,7,28,2023,11,5,50,495,-1390,-9031,10501,671,2416,3043,
1463,7,28,2023,11,5,50,505,-365,-9318,9630,1062,471,1628,
1464,7,28,2023,11,5,50,515,652,-8895,8961,1580,-1575,-17,
1465,7,28,2023,11,5,50,525,1104,-8103,8097,1795,-3514,-1758,
1466,7,28,2023,11,5,50,535,1397,-7164,7145,1580,-5402,-3467,
1467,7,28,2023,11,5,50,545,1386,-5719,6586,1105,-6980,-5150,
1468,7,28,2023,11,5,50,555,375,-4648,6017,342,-8575,-6595,
1469,7,28,2023,11,5,50,565,-1054,-3475,5580,-553,-10487,-7562,
1470,7,28,2023,11,5,50,575,-2046,-2436,5178,-1560,-12441,-8103,
1471,7,28,2023,11,5,50,585,-2650,-1913,4892,-2564,-14094,-8265,
1472,7,28,2023,11,5,50,595,-3399,-1423,5046,-3407,-15321,-8009,
1473,7,28,2023,11,5,50,605,-4875,-1239,5515,-4270,-16265,-7551,
1474,7,28,2023,11,5,50,615,-6308,-1658,5743,-4992,-17142,-7203,
1475,7,28,2023,11,5,50,625,-7023,-2006,5809,-5109,-17787,-7069,
1476,7,28,2023,11,5,50,635,-7712,-2312,6188,-4823,-17962,-7121,
1477,7,28,2023,11,5,50,645,-8338,-2199,6984,-4467,-17910,-7550,
1478,7,28,2023,11,5,50,655,-8568,-1679,8509,-4258,-17740,-8492,
1479,7,28,2023,11,5,50,665,-9946,-2110,10799,-4354,-17486,-9435,
1480,7,28,2023,11,5,50,675,-13253,-3572,12683,-4378,-17791,-9909,
1481,7,28,2023,11,5,50,685,-16475,-2758,12901,-3698,-18511,-10354,
1482,7,28,2023,11,5,50,695,-20590,-115,11375,-3475,-18468,-11073,
1483,7,28,2023,11,5,50,705,-24407,1241,7047,-4202,-17657,-11611,
1484,7,28,2023,11,5,50,715,-27219,2211,1374,-3889,-16100,-11756,
1485,7,28,2023,11,5,50,725,-25989,4124,-3808,-1890,-14260,-10628,
1486,7,28,2023,11,5,50,735,-20808,9140,-7743,-739,-11862,-8088,
1487,7,28,2023,11,5,50,745,-22938,11817,-11755,-2001,-7837,-5314,
1488,7,28,2023,11,5,50,755,-25616,13722,-14784,-3393,-4210,-2994,
1489,7,28,2023,11,5,50,765,-22504,11787,-15520,-2739,-1230,-1508,
1490,7,28,2023,11,5,50,775,-18964,8057,-14087,1067,1491,364,
1491,7,28,2023,11,5,50,785,-18544,6960,-9574,5075,3648,2409,
1492,7,28,2023,11,5,50,795,-16629,8309,-7036,4943,5098,3488,
1493,7,28,2023,11,5,50,805,-4597,1386,-5779,1622,7976,5073,
1494,7,28,2023,11,5,50,815,-524,-8365,4293,1725,11752,7084,
1495,7,28,2023,11,5,50,825,-12452,-5170,5214,3025,13355,7612,
1496,7,28,2023,11,5,50,835,-28146,-2440,11398,4294,12444,5761,
1497,7,28,2023,11,5,50,845,-19144,2836,22606,5666,4509,3153,
1498,7,28,2023,11,5,50,855,7576,-2544,6993,2608,-1930,2399,
1499,7,28,2023,11,5,50,865,-7462,-675,2917,1859,-563,1881,
1500,7,28,2023,11,5,50,875,-7415,2271,1038,1749,-550,1044,
1501,7,28,2023,11,5,50,885,-17,1233,2594,875,-308,457,
1502,7,28,2023,11,5,50,895,-1308,-218,3898,374,-303,-24,
1503,7,28,2023,11,5,50,905,-1067,-2726,6122,254,-522,-243,
1504,7,28,2023,11,5,50,915,-3350,-1678,4537,225,-489,-47,
1505,7,28,2023,11,5,50,925,-4720,213,5107,228,144,246,
1506,7,28,2023,11,5,50,935,-2152,-565,4196,-100,470,105,
1507,7,28,2023,11,5,50,945,-554,-1362,5104,-285,733,-95,
1508,7,28,2023,11,5,50,955,-1716,-1744,4808,-288,1191,11,
1509,7,28,2023,11,5,50,965,-2524,-1873,5135,-210,1714,138,
1510,7,28,2023,11,5,50,975,-5200,-426,4524,-115,2442,308,
1511,7,28,2023,11,5,50,985,-2442,-658,5230,-417,3839,189,
1512,7,28,2023,11,5,50,995,-76,-832,5370,-1043,5973,18,
1513,7,28,2023,11,5,51,5,78,-1940,5645,-1470,8939,293,
1514,7,28,2023,11,5,51,15,406,-1903,6824,-1097,12045,1287,
1515,7,28,2023,11,5,51,25,-1185,134,5015,-999,14511,2469,
1516,7,28,2023,11,5,51,35,-2780,-805,4448,-1169,16335,3747,
1517,7,28,2023,11,5,51,45,-1303,-944,4335,204,17667,4357,
1518,7,28,2023,11,5,51,55,-2065,-1363,4803,174,19102,4033,
1519,7,28,2023,11,5,51,65,-4159,-3002,5264,-23,19814,3928,
1520,7,28,2023,11,5,51,75,-9936,-410,4369,-311,19450,4216,
1521,7,28,2023,11,5,51,85,-19094,-3164,3616,49,17016,4817,
1522,7,28,2023,11,5,51,95,-17271,-351,4059,2936,11124,5596,
1523,7,28,2023,11,5,51,105,-7428,6552,806,3202,6865,6229,
1524,7,28,2023,11,5,51,115,-10413,6490,4715,-67,7424,8680,
1525,7,28,2023,11,5,51,125,-15963,-1384,9538,-3433,6229,10538,
1526,7,28,2023,11,5,51,135,-6640,-4453,6920,-3854,3950,11073,
1527,7,28,2023,11,5,51,145,-6805,-4227,8147,-1742,5611,11750,
1528,7,28,2023,11,5,51,155,-8970,-4638,11562,-295,7083,11466,
1529,7,28,2023,11,5,51,165,-7585,-5904,12598,-194,6671,10329,
1530,7,28,2023,11,5,51,175,-4988,-7379,12400,178,5933,9331,
1531,7,28,2023,11,5,51,195,-2515,-6739,11134,1628,5568,7181,
1532,7,28,2023,11,5,51,205,-2016,-6428,10821,1515,5710,5755,
1533,7,28,2023,11,5,51,215,-1915,-6810,10731,1211,5834,4464,
1534,7,28,2023,11,5,51,225,-2211,-7399,10679,1287,5525,3365,
1535,7,28,2023,11,5,51,235,-2247,-7737,10322,1882,4340,2344,
1536,7,28,2023,11,5,51,245,-1332,-7270,9555,2693,2362,1233,
1537,7,28,2023,11,5,51,255,200,-6205,8405,3100,266,62,
1538,7,28,2023,11,5,51,265,1283,-5379,6840,2744,-1368,-1078,
1539,7,28,2023,11,5,51,275,1719,-5474,5343,2075,-2676,-2217,
1540,7,28,2023,11,5,51,285,1535,-5679,4500,1729,-3954,-3388,
1541,7,28,2023,11,5,51,295,1543,-5301,4248,1688,-5373,-4660,
1542,7,28,2023,11,5,51,305,1322,-4175,4610,1351,-6838,-6062,
1543,7,28,2023,11,5,51,315,775,-2979,5014,334,-8307,-7370,
1544,7,28,2023,11,5,51,325,-224,-2201,5255,-1068,-9751,-8259,
1545,7,28,2023,11,5,51,335,-1694,-1877,5489,-2364,-11212,-8549,
1546,7,28,2023,11,5,51,345,-3180,-1828,5703,-3283,-12765,-8330,
1547,7,28,2023,11,5,51,355,-4384,-2020,5915,-3725,-14308,-7806,
1548,7,28,2023,11,5,51,365,-5783,-2138,6351,-3808,-15675,-7196,
1549,7,28,2023,11,5,51,375,-7035,-2235,6640,-3798,-16977,-6741,
1550,7,28,2023,11,5,51,385,-7241,-2341,6684,-3756,-18060,-6517,
1551,7,28,2023,11,5,51,395,-7252,-2288,6573,-3850,-18630,-6542,
1552,7,28,2023,11,5,51,405,-7021,-1734,6968,-4127,-18606,-6884,
1553,7,28,2023,11,5,51,415,-7861,-1391,8446,-4819,-18084,-7339,
1554,7,28,2023,11,5,51,425,-10311,-2535,9921,-5755,-17801,-7533,
1555,7,28,2023,11,5,51,435,-13959,-1077,10278,-6132,-17726,-8031,
1556,7,28,2023,11,5,51,445,-18016,-769,9344,-6561,-17332,-9195,
1557,7,28,2023,11,5,51,455,-20211,-587,7066,-6009,-16684,-10370,
1558,7,28,2023,11,5,51,465,-22622,1991,4698,-3759,-15150,-11425,
1559,7,28,2023,11,5,51,475,-25873,4153,1861,-1663,-13570,-11303,
1560,7,28,2023,11,5,51,485,-25020,6299,-2122,-896,-12909,-8945,
1561,7,28,2023,11,5,51,495,-22187,10143,-7217,-1699,-11266,-5721,
1562,7,28,2023,11,5,51,505,-22852,12000,-12438,-3258,-7686,-3475,
1563,7,28,2023,11,5,51,515,-22145,11611,-14849,-3205,-3864,-1864,
1564,7,28,2023,11,5,51,525,-20512,10525,-13513,-798,-771,-67,
1565,7,28,2023,11,5,51,535,-18544,9705,-10763,2049,1235,1563,
1566,7,28,2023,11,5,51,545,-14666,8584,-8788,3463,2759,2361,
1567,7,28,2023,11,5,51,555,-11067,9464,-9862,3196,5194,3503,
1568,7,28,2023,11,5,51,565,-559,1437,-6785,1413,10270,6945,
1569,7,28,2023,11,5,51,575,-8701,-9849,7669,1510,15001,9951,
1570,7,28,2023,11,5,51,585,-28607,-12050,7966,3065,13834,8749,
1571,7,28,2023,11,5,51,595,-30621,-2004,18597,7099,8378,4646,
1572,7,28,2023,11,5,51,605,4099,8984,15465,4587,-47,2374,
1573,7,28,2023,11,5,51,615,-5099,-4635,6136,2409,-1177,2880,
1574,7,28,2023,11,5,51,625,-4645,-1272,5176,1964,-653,1024,
1575,7,28,2023,11,5,51,635,-3003,2469,1022,1287,-533,848,
1576,7,28,2023,11,5,51,645,-6521,3289,3341,588,-95,489,
1577,7,28,2023,11,5,51,655,-1337,-1437,4216,-184,-390,-606,
1578,7,28,2023,11,5,51,665,209,-3771,5807,-281,-462,-603,
1579,7,28,2023,11,5,51,675,-1230,-2058,6184,-232,-62,-87,
1580,7,28,2023,11,5,51,685,-2838,104,5138,-301,527,76,
1581,7,28,2023,11,5,51,695,-4348,270,4182,-380,1076,-16,
1582,7,28,2023,11,5,51,705,-1946,-1201,4292,-430,1471,-132,
1583,7,28,2023,11,5,51,715,-1092,-1315,4487,-374,1935,-124,
1584,7,28,2023,11,5,51,725,-2164,-1310,4900,-416,2596,-67,
1585,7,28,2023,11,5,51,735,-1140,-1452,5901,-813,3766,-176,
1586,7,28,2023,11,5,51,745,-2648,-233,4989,-1445,5746,-141,
1587,7,28,2023,11,5,51,755,-2152,-1048,5444,-1705,8875,326,
1588,7,28,2023,11,5,51,765,-502,-1293,6276,-1557,11879,943,
1589,7,28,2023,11,5,51,775,1370,-471,5784,-1299,13946,1628,
1590,7,28,2023,11,5,51,785,-480,-1064,4893,-530,15286,2492,
1591,7,28,2023,11,5,51,795,-2447,-537,4159,481,16373,2995,
1592,7,28,2023,11,5,51,805,-5372,-1953,1796,-591,17929,2954,
1593,7,28,2023,11,5,51,815,-6635,-3407,5220,126,18535,3033,
1594,7,28,2023,11,5,51,825,-11727,-3854,4711,1411,16936,3869,
1595,7,28,2023,11,5,51,835,-14892,-1129,5200,3006,12832,4460,
1596,7,28,2023,11,5,51,845,-9099,3140,1790,1706,8620,4078,
1597,7,28,2023,11,5,51,855,-5181,2169,2065,-1059,8249,4625,
1598,7,28,2023,11,5,51,865,-10355,-578,6789,-1614,8539,6525,
1599,7,28,2023,11,5,51,875,-9027,-2409,9955,-516,6154,7633,
1600,7,28,2023,11,5,51,885,-3576,-1349,8278,-294,4982,8272,
1601,7,28,2023,11,5,51,895,-4547,-1988,9827,-1051,6398,8823,
1602,7,28,2023,11,5,51,905,-5208,-4224,10516,-2259,6918,8744,
1603,7,28,2023,11,5,51,915,-4701,-6381,10235,-2329,6490,8669,
1604,7,28,2023,11,5,51,925,-3544,-7175,9646,-1077,5859,8641,
1605,7,28,2023,11,5,51,935,-2756,-6460,9380,486,5563,8287,
1606,7,28,2023,11,5,51,945,-2398,-5415,9324,1203,5563,7422,
1607,7,28,2023,11,5,51,955,-2410,-5212,9345,934,5661,6355,
1608,7,28,2023,11,5,51,965,-2702,-5814,9392,472,5670,5441,
1609,7,28,2023,11,5,51,975,-3095,-6620,9544,435,5285,4747,
1610,7,28,2023,11,5,51,985,-3231,-7050,9510,787,4192,4042,
1611,7,28,2023,11,5,51,995,-2613,-7112,9046,1319,2393,3083,
1612,7,28,2023,11,5,52,5,-1608,-6976,8253,1891,365,1977,
1613,7,28,2023,11,5,52,15,-569,-6494,7104,2278,-1525,944,
1614,7,28,2023,11,5,52,25,360,-6059,6056,2378,-3095,-160,
1615,7,28,2023,11,5,52,35,555,-5590,5236,2216,-4501,-1485,
1616,7,28,2023,11,5,52,55,944,-4091,4246,873,-7114,-4213,
1617,7,28,2023,11,5,52,65,674,-3364,4431,-313,-8150,-5383,
1618,7,28,2023,11,5,52,75,-440,-3026,4784,-1541,-9212,-6335,
1619,7,28,2023,11,5,52,85,-2058,-2850,5368,-2410,-10482,-6966,
1620,7,28,2023,11,5,52,95,-3808,-2720,5815,-2924,-12044,-7366,
1621,7,28,2023,11,5,52,105,-4897,-2641,5860,-3184,-13758,-7580,
1622,7,28,2023,11,5,52,115,-5684,-2556,5679,-3257,-15215,-7677,
1623,7,28,2023,11,5,52,125,-6129,-2503,5521,-3250,-16242,-7731,
1624,7,28,2023,11,5,52,135,-6033,-2410,5778,-3267,-16724,-7847,
1625,7,28,2023,11,5,52,145,-6414,-2303,6469,-3413,-16707,-8096,
1626,7,28,2023,11,5,52,155,-7221,-1892,7612,-3759,-16616,-8502,
1627,7,28,2023,11,5,52,165,-8284,-1892,9377,-4213,-16544,-8987,
1628,7,28,2023,11,5,52,175,-11549,-2663,10881,-4585,-16826,-8984,
1629,7,28,2023,11,5,52,185,-16513,-529,10531,-4606,-17395,-9202,
1630,7,28,2023,11,5,52,195,-20520,-206,8015,-5134,-17693,-9995,
1631,7,28,2023,11,5,52,205,-21865,980,4195,-4539,-16865,-11160,
1632,7,28,2023,11,5,52,215,-23435,3528,-39,-2270,-14646,-12115,
1633,7,28,2023,11,5,52,225,-24729,6247,-3111,-67,-12319,-11091,
1634,7,28,2023,11,5,52,235,-23201,9239,-5542,34,-10797,-7338,
1635,7,28,2023,11,5,52,245,-21503,12625,-8843,-2855,-9035,-2706,
1636,7,28,2023,11,5,52,255,-21602,11148,-12528,-6214,-6207,140,
1637,7,28,2023,11,5,52,265,-19797,6737,-14052,-5049,-3213,1366,
1638,7,28,2023,11,5,52,275,-18052,5952,-12307,60,-545,2293,
1639,7,28,2023,11,5,52,285,-16637,6623,-9406,3015,1531,2839,
1640,7,28,2023,11,5,52,295,-14365,4470,-7950,2508,3343,2570,
1641,7,28,2023,11,5,52,305,-12143,3452,-9246,2671,6153,3098,
1642,7,28,2023,11,5,52,315,1439,-1364,-2695,3887,10553,5070,
1643,7,28,2023,11,5,52,325,-8800,-2438,7711,3876,14103,6918,
1644,7,28,2023,11,5,52,335,-23695,-2865,11794,4081,12697,6767,
1645,7,28,2023,11,5,52,345,-25173,-597,20226,6356,4649,4624,
1646,7,28,2023,11,5,52,355,4876,-190,8883,3239,-2093,2141,
1647,7,28,2023,11,5,52,365,-6917,-1748,3971,2547,-1359,2122,
1648,7,28,2023,11,5,52,375,-6398,1910,3219,2399,-1046,1204,
1649,7,28,2023,11,5,52,385,-647,1779,2561,1361,-703,662,
1650,7,28,2023,11,5,52,395,367,-318,4349,597,-360,170,
1651,7,28,2023,11,5,52,405,-1110,-1722,4838,208,-494,-208,
1652,7,28,2023,11,5,52,415,-5645,-225,4579,43,-231,-98,
1653,7,28,2023,11,5,52,425,-3268,-169,5709,-150,268,-62,
1654,7,28,2023,11,5,52,435,-1408,-1479,4686,-375,630,-205,
1655,7,28,2023,11,5,52,445,-969,-1285,4438,-331,867,-143,
1656,7,28,2023,11,5,52,455,-1493,-1220,5399,-258,1371,-60,
1657,7,28,2023,11,5,52,465,-2841,-1392,4677,-299,1997,-78,
1658,7,28,2023,11,5,52,475,-5160,-628,4875,-281,2919,-28,
1659,7,28,2023,11,5,52,485,-2336,-650,5038,-735,4313,-242,
1660,7,28,2023,11,5,52,495,676,-1310,5561,-1323,6541,-296,
1661,7,28,2023,11,5,52,505,288,-1917,6025,-1498,9598,278,
1662,7,28,2023,11,5,52,515,19,-1639,6389,-1150,12538,1244,
1663,7,28,2023,11,5,52,525,-2350,799,4492,-1061,15142,2495,
1664,7,28,2023,11,5,52,535,-1123,-869,5175,-582,17011,3477,
1665,7,28,2023,11,5,52,545,-1498,-601,4845,534,18249,3727,
1666,7,28,2023,11,5,52,555,-2646,-1613,3999,-311,19732,3265,
1667,7,28,2023,11,5,52,565,-4214,-2767,6333,-318,20450,3603,
1668,7,28,2023,11,5,52,575,-11312,-1816,3263,-929,19864,3782,
1669,7,28,2023,11,5,52,585,-18167,-3116,3577,-1033,16989,4191,
1670,7,28,2023,11,5,52,595,-13270,-1801,2951,776,11208,4566,
1671,7,28,2023,11,5,52,605,-5365,1911,82,1351,8667,4535,
1672,7,28,2023,11,5,52,615,-7080,2490,2701,49,10495,5402,
1673,7,28,2023,11,5,52,625,-14247,-2183,8561,-1196,10928,6271,
1674,7,28,2023,11,5,52,635,-8734,-3817,8606,-921,8753,6337,
1675,7,28,2023,11,5,52,645,-6843,-2903,8367,-123,8589,6517,
1676,7,28,2023,11,5,52,655,-7562,-3314,9835,-384,9361,6318,
1677,7,28,2023,11,5,52,665,-7183,-4695,10421,-1078,9576,5917,
1678,7,28,2023,11,5,52,675,-6265,-5314,11109,-966,9405,5755,
1679,7,28,2023,11,5,52,685,-5685,-4940,11668,-574,8923,5679,
1680,7,28,2023,11,5,52,695,-5711,-4439,12046,-611,8144,5463,
1681,7,28,2023,11,5,52,705,-5261,-4658,12110,-977,7049,5201,
1682,7,28,2023,11,5,52,715,-4400,-5398,11833,-1067,5676,5034,
1683,7,28,2023,11,5,52,725,-3574,-6077,11329,-588,3971,4832,
1684,7,28,2023,11,5,52,735,-2952,-6229,10738,176,1926,4448,
1685,7,28,2023,11,5,52,745,-2033,-6359,9919,804,-375,3847,
1686,7,28,2023,11,5,52,755,-925,-6164,8730,1161,-2760,3181,
1687,7,28,2023,11,5,52,765,129,-5471,7406,1110,-4903,2424,
1688,7,28,2023,11,5,52,775,981,-5120,6010,615,-6598,1416,
1689,7,28,2023,11,5,52,785,1307,-5322,4911,141,-7968,287,
1690,7,28,2023,11,5,52,795,1122,-5082,4355,-93,-9256,-893,
1691,7,28,2023,11,5,52,805,404,-4348,4275,-523,-10519,-2339,
1692,7,28,2023,11,5,52,815,-305,-3857,4067,-1327,-11742,-4034,
1693,7,28,2023,11,5,52,825,-1234,-3740,4074,-2040,-12758,-5565,
1694,7,28,2023,11,5,52,835,-2915,-3417,4519,-2393,-13694,-6670,
1695,7,28,2023,11,5,52,845,-4327,-3080,4839,-2551,-14790,-7429,
1696,7,28,2023,11,5,52,855,-5363,-2733,4989,-2638,-15858,-7892,
1697,7,28,2023,11,5,52,865,-6511,-2273,5152,-2798,-16731,-8129,
1698,7,28,2023,11,5,52,875,-7105,-2091,5182,-3046,-17458,-8235,
1699,7,28,2023,11,5,52,885,-7091,-2160,5195,-3193,-17887,-8162,
1700,7,28,2023,11,5,52,895,-6920,-1844,5436,-3201,-17974,-8020,
1701,7,28,2023,11,5,52,915,-9961,-2499,8814,-4043,-17425,-7863,
1702,7,28,2023,11,5,52,925,-13299,-1899,9025,-4383,-17956,-8131,
1703,7,28,2023,11,5,52,935,-16074,-1692,7940,-4666,-18276,-8726,
1704,7,28,2023,11,5,52,945,-18402,-513,6021,-4679,-17693,-9347,
1705,7,28,2023,11,5,52,955,-21120,1559,3409,-4066,-16046,-10435,
1706,7,28,2023,11,5,52,965,-23856,4281,-70,-2904,-14041,-11097,
1707,7,28,2023,11,5,52,975,-26112,6288,-3416,-1737,-12318,-9905,
1708,7,28,2023,11,5,52,985,-22980,8169,-6416,-1111,-11239,-6253,
1709,7,28,2023,11,5,52,995,-21367,11283,-9677,-2112,-9313,-2358,
1710,7,28,2023,11,5,53,5,-22189,8864,-14058,-3424,-6183,-313,
1711,7,28,2023,11,5,53,15,-19745,6929,-14667,-1689,-2817,1117,
1712,7,28,2023,11,5,53,25,-17481,6497,-12207,1140,511,1511,
1713,7,28,2023,11,5,53,35,-15283,5415,-10424,2761,3281,930,
1714,7,28,2023,11,5,53,45,-14690,7951,-12651,3111,6455,951,
1715,7,28,2023,11,5,53,55,-3347,4564,-10392,2147,11773,3111,
1716,7,28,2023,11,5,53,65,-12372,-1694,9109,2071,17453,6566,
1717,7,28,2023,11,5,53,75,-28616,-8009,18200,2904,14366,8236,
1718,7,28,2023,11,5,53,85,-26223,-3251,13386,6085,4202,5442,
1719,7,28,2023,11,5,53,95,2974,3349,12454,4012,-570,2215,
1720,7,28,2023,11,5,53,105,-4361,-3312,8037,2428,-1053,2289,
1721,7,28,2023,11,5,53,115,-3732,-538,3828,2225,-1087,1339,
1722,7,28,2023,11,5,53,125,-2076,2096,606,1670,-678,1040,
1723,7,28,2023,11,5,53,135,-5781,3027,2812,886,110,599,
1724,7,28,2023,11,5,53,145,-1726,-924,4663,99,-300,-496,
1725,7,28,2023,11,5,53,155,-92,-3919,5375,-84,-545,-600,
1726,7,28,2023,11,5,53,165,-1100,-2060,5754,13,-62,-44,
1727,7,28,2023,11,5,53,175,-2405,-109,4811,-10,577,313,
1728,7,28,2023,11,5,53,185,-4668,301,4027,-50,991,260,
1729,7,28,2023,11,5,53,195,-2546,-775,4427,-153,1284,46,
1730,7,28,2023,11,5,53,205,-819,-2079,4581,-221,1852,18,
1731,7,28,2023,11,5,53,215,-1847,-1953,5147,-345,2621,183,
1732,7,28,2023,11,5,53,225,-1425,-576,5597,-630,3983,181,
1733,7,28,2023,11,5,53,235,-3440,-528,5192,-1158,6432,357,
1734,7,28,2023,11,5,53,245,-1537,-846,6253,-1092,9614,837,
1735,7,28,2023,11,5,53,255,305,-1099,5950,-1004,12551,1411,
1736,7,28,2023,11,5,53,265,483,-190,5994,-971,14912,2117,
1737,7,28,2023,11,5,53,275,400,-1955,5648,-517,16030,3026,
1738,7,28,2023,11,5,53,285,-3417,626,2767,730,17439,3514,
1739,7,28,2023,11,5,53,295,-6061,-913,3729,-82,19127,3565,
1740,7,28,2023,11,5,53,305,-6093,-2093,4854,-166,19421,3140,
1741,7,28,2023,11,5,53,315,-12833,-2182,5444,1214,18123,3127,
1742,7,28,2023,11,5,53,325,-18443,-1682,5937,3484,13723,3821,
1743,7,28,2023,11,5,53,335,-11294,3792,880,3869,7967,3620,
1744,7,28,2023,11,5,53,345,-5510,6805,457,1057,7210,4825,
1745,7,28,2023,11,5,53,355,-13708,1338,7005,-1550,8008,7750,
1746,7,28,2023,11,5,53,365,-8505,-2035,8370,-2063,5766,9023,
1747,7,28,2023,11,5,53,375,-5321,-1120,8269,-1748,5877,9843,
1748,7,28,2023,11,5,53,385,-8286,-2851,11185,-2294,7317,10067,
1749,7,28,2023,11,5,53,395,-7667,-5945,11439,-2870,6966,9497,
1750,7,28,2023,11,5,53,405,-5486,-7779,11137,-1786,6227,9139,
1751,7,28,2023,11,5,53,415,-3736,-8199,10879,74,5951,8815,
1752,7,28,2023,11,5,53,425,-2460,-7541,10825,1550,6063,8007,
1753,7,28,2023,11,5,53,435,-1806,-6572,10998,1991,6276,6712,
1754,7,28,2023,11,5,53,445,-1693,-6355,11202,1483,6398,5360,
1755,7,28,2023,11,5,53,455,-2274,-6995,11473,857,6203,4285,
1756,7,28,2023,11,5,53,465,-2995,-7730,11457,780,5315,3453,
1757,7,28,2023,11,5,53,475,-2693,-8010,10765,1297,3538,2717,
1758,7,28,2023,11,5,53,485,-1094,-7454,9580,1974,1373,1929,
1759,7,28,2023,11,5,53,495,386,-6235,8312,2149,-450,1115,
1760,7,28,2023,11,5,53,505,1079,-5725,6854,1522,-1848,154,
1761,7,28,2023,11,5,53,515,1112,-5990,5662,686,-3161,-1091,
1762,7,28,2023,11,5,53,525,816,-6321,4917,280,-4556,-2593,
1763,7,28,2023,11,5,53,535,951,-5812,4611,238,-6064,-4336,
1764,7,28,2023,11,5,53,545,993,-4350,4870,-60,-7453,-6280,
1765,7,28,2023,11,5,53,555,668,-2767,5209,-1071,-8686,-8144,
1766,7,28,2023,11,5,53,565,-320,-1663,5656,-2406,-9778,-9449,
1767,7,28,2023,11,5,53,575,-2121,-1029,6336,-3548,-10942,-10085,
1768,7,28,2023,11,5,53,585,-4020,-957,6787,-4252,-12427,-10207,
1769,7,28,2023,11,5,53,595,-5178,-1114,6953,-4178,-14111,-9887,
1770,7,28,2023,11,5,53,605,-5907,-743,7152,-3474,-15663,-9213,
1771,7,28,2023,11,5,53,615,-6095,-99,7375,-2863,-16913,-8368,
1772,7,28,2023,11,5,53,625,-6174,175,7776,-2839,-17726,-7484,
1773,7,28,2023,11,5,53,635,-6865,4,8237,-3415,-18217,-6703,
1774,7,28,2023,11,5,53,645,-7948,-97,8926,-4219,-18443,-6162,
1775,7,28,2023,11,5,53,655,-9845,-1495,9822,-5143,-18591,-5680,
1776,7,28,2023,11,5,53,665,-12984,-1030,10362,-5649,-18719,-5640,
1777,7,28,2023,11,5,53,675,-16430,-1049,9645,-6151,-18630,-6757,
1778,7,28,2023,11,5,53,685,-18972,-1053,7619,-5831,-17903,-8714,
1779,7,28,2023,11,5,53,695,-21713,56,4369,-3793,-16206,-10923,
1780,7,28,2023,11,5,53,705,-24964,2080,400,-919,-14145,-11796,
1781,7,28,2023,11,5,53,715,-26230,5397,-3334,1077,-12483,-9975,
1782,7,28,2023,11,5,53,725,-24247,9721,-6630,72,-10676,-6340,
1783,7,28,2023,11,5,53,735,-24293,10680,-10914,-3079,-7583,-3628,
1784,7,28,2023,11,5,53,745,-24172,8542,-14752,-3410,-4151,-2312,
1785,7,28,2023,11,5,53,755,-21433,9239,-14801,-17,-1113,-1051,
1786,7,28,2023,11,5,53,775,-17249,7304,-10265,3446,3820,542,
1787,7,28,2023,11,5,53,785,-13995,9709,-9291,3486,5997,1255,
1788,7,28,2023,11,5,53,795,-1869,2379,-5234,126,10234,3799,
1789,7,28,2023,11,5,53,805,-2809,-10714,5311,174,13797,7988,
1790,7,28,2023,11,5,53,815,-21212,-10261,6966,2769,13596,9561,
1791,7,28,2023,11,5,53,825,-32412,-7438,17020,6248,9226,6140,
1792,7,28,2023,11,5,53,835,836,9877,16459,4879,1139,2016,
1793,7,28,2023,11,5,53,845,-2564,-4673,4941,2487,-1291,3325,
1794,7,28,2023,11,5,53,855,-11561,377,3418,2755,-1032,1968,
1795,7,28,2023,11,5,53,865,-962,1466,3033,1975,-1017,1120,
1796,7,28,2023,11,5,53,875,207,1559,3735,987,-504,608,
1797,7,28,2023,11,5,53,885,-1527,-1054,5815,368,-599,-107,
1798,7,28,2023,11,5,53,895,-2010,-2223,4346,15,-770,-463,
1799,7,28,2023,11,5,53,905,-6785,-548,4360,-36,5,-30,
1800,7,28,2023,11,5,53,915,-1576,25,4993,-291,206,36,
1801,7,28,2023,11,5,53,925,-324,-1206,4602,-429,587,-109,
1802,7,28,2023,11,5,53,935,-981,-1325,4165,-402,800,-106,
1803,7,28,2023,11,5,53,945,-1944,-1701,4734,-308,1450,-18,
1804,7,28,2023,11,5,53,955,-4877,-1052,4390,-230,1980,101,
1805,7,28,2023,11,5,53,965,-3414,-996,5357,-410,2917,137,
1806,7,28,2023,11,5,53,975,-1249,-168,5149,-912,4448,-93,
1807,7,28,2023,11,5,53,985,470,-1315,5372,-1391,6861,-56,
1808,7,28,2023,11,5,53,995,267,-1327,6633,-1266,9956,440,
1809,7,28,2023,11,5,54,5,-815,-871,5420,-1153,12673,1264,
1810,7,28,2023,11,5,54,15,-3287,148,4818,-1070,15214,2302,
1811,7,28,2023,11,5,54,25,-688,-1445,4313,-386,16373,3007,
1812,7,28,2023,11,5,54,35,-1411,-1187,4902,866,17594,3432,
1813,7,28,2023,11,5,54,45,-4292,-3471,4853,295,18662,3392,
1814,7,28,2023,11,5,54,55,-6493,-2163,3899,947,18466,3570,
1815,7,28,2023,11,5,54,65,-15343,-1833,3019,2383,17204,4466,
1816,7,28,2023,11,5,54,75,-16630,-1506,4167,4271,12863,5116,
1817,7,28,2023,11,5,54,85,-8166,4737,1279,3971,8976,4562,
1818,7,28,2023,11,5,54,95,-6512,5950,3693,629,9400,5701,
1819,7,28,2023,11,5,54,105,-13137,1178,8970,-2294,9254,7823,
1820,7,28,2023,11,5,54,115,-8408,-2286,9697,-2909,6495,8883,
1821,7,28,2023,11,5,54,125,-4212,-2381,8198,-1911,6056,9792,
1822,7,28,2023,11,5,54,135,-5711,-2827,10420,-960,7515,10247,
1823,7,28,2023,11,5,54,145,-6055,-4339,11334,-1290,7763,9657,
1824,7,28,2023,11,5,54,155,-5012,-6788,11262,-1374,7252,8938,
1825,7,28,2023,11,5,54,165,-3744,-7761,10769,-318,6650,8357,
1826,7,28,2023,11,5,54,175,-3102,-6971,10540,1000,6299,7512,
1827,7,28,2023,11,5,54,185,-2964,-6000,10452,1396,6090,6263,
1828,7,28,2023,11,5,54,195,-2872,-6117,10400,983,5883,4950,
1829,7,28,2023,11,5,54,205,-3053,-6761,10416,629,5448,3910,
1830,7,28,2023,11,5,54,215,-3220,-7281,10203,701,4373,3054,
1831,7,28,2023,11,5,54,225,-2772,-7490,9536,1097,2516,2133,
1832,7,28,2023,11,5,54,235,-1377,-7181,8531,1671,285,1087,
1833,7,28,2023,11,5,54,245,-208,-6330,7368,2038,-1713,76,
1834,7,28,2023,11,5,54,255,478,-5437,6148,1809,-3284,-925,
1835,7,28,2023,11,5,54,265,951,-5037,5093,1165,-4634,-2081,
1836,7,28,2023,11,5,54,275,1011,-4956,4387,555,-5899,-3374,
1837,7,28,2023,11,5,54,285,996,-4418,4144,150,-7146,-4530,
1838,7,28,2023,11,5,54,295,342,-3329,4645,-512,-8315,-5586,
1839,7,28,2023,11,5,54,305,-1027,-2643,5278,-1718,-9583,-6706,
1840,7,28,2023,11,5,54,315,-2252,-2769,5456,-2931,-11161,-7623,
1841,7,28,2023,11,5,54,325,-3231,-2762,5510,-3395,-12877,-7979,
1842,7,28,2023,11,5,54,335,-4318,-2197,5697,-3436,-14404,-7834,
1843,7,28,2023,11,5,54,345,-5321,-1770,5862,-3672,-15619,-7481,
1844,7,28,2023,11,5,54,355,-6184,-1962,6023,-4075,-16489,-7175,
1845,7,28,2023,11,5,54,365,-6739,-2449,6366,-4281,-17033,-7053,
1846,7,28,2023,11,5,54,375,-7125,-2630,7145,-4246,-17290,-7242,
1847,7,28,2023,11,5,54,385,-7731,-2340,8101,-4297,-17359,-7766,
1848,7,28,2023,11,5,54,395,-8509,-2020,9730,-4618,-17323,-8450,
1849,7,28,2023,11,5,54,405,-10457,-2691,11571,-5222,-17394,-8855,
1850,7,28,2023,11,5,54,415,-13831,-2484,12060,-5716,-17717,-8987,
1851,7,28,2023,11,5,54,425,-17861,-600,10938,-5997,-17663,-9777,
1852,7,28,2023,11,5,54,435,-20091,-415,8393,-6124,-17016,-10795,
1853,7,28,2023,11,5,54,445,-21824,882,5094,-4780,-15702,-11436,
1854,7,28,2023,11,5,54,455,-23690,2517,1672,-2704,-14255,-10681,
1855,7,28,2023,11,5,54,465,-21705,6672,-1964,-1954,-13024,-8068,
1856,7,28,2023,11,5,54,475,-22257,10832,-6482,-3725,-10382,-5336,
1857,7,28,2023,11,5,54,485,-24038,13653,-11852,-5780,-6885,-3800,
1858,7,28,2023,11,5,54,495,-24948,13847,-15301,-4938,-3452,-2996,
1859,7,28,2023,11,5,54,505,-21683,11503,-15889,-804,-835,-650,
1860,7,28,2023,11,5,54,515,-18168,10278,-11491,3408,1523,2844,
1861,7,28,2023,11,5,54,525,-16687,7921,-6555,3879,3394,4299,
1862,7,28,2023,11,5,54,535,-12825,3527,-4642,2746,4393,3599,
1863,7,28,2023,11,5,54,545,-9026,3118,-5967,3000,6136,3661,
1864,7,28,2023,11,5,54,555,7354,-6440,-41,3447,10022,6748,
1865,7,28,2023,11,5,54,565,-5942,-7244,8131,4261,13323,9377,
1866,7,28,2023,11,5,54,575,-28331,866,5916,4435,13689,7254,
1867,7,28,2023,11,5,54,585,-28966,-955,22372,6257,8108,5144,
1868,7,28,2023,11,5,54,595,6102,-940,10202,4642,-1128,2892,
1869,7,28,2023,11,5,54,605,-4586,-2041,6798,3371,-1358,2740,
1870,7,28,2023,11,5,54,615,-5248,1225,2813,2808,-1291,1743,
1871,7,28,2023,11,5,54,635,-2420,835,3581,757,-538,64,
1872,7,28,2023,11,5,54,645,-361,-3463,5018,296,-756,-460,
1873,7,28,2023,11,5,54,655,-1345,-2063,6155,289,-648,-125,
1874,7,28,2023,11,5,54,665,-1778,90,6207,141,-85,29,
1875,7,28,2023,11,5,54,675,-4368,-338,4244,-51,769,61,
1876,7,28,2023,11,5,54,685,-2276,-1267,3864,-136,1093,86,
1877,7,28,2023,11,5,54,695,-661,-1265,4215,-130,1370,85,
1878,7,28,2023,11,5,54,705,-2374,-1822,4109,-77,1955,218,
1879,7,28,2023,11,5,54,715,-1502,-1080,5799,-92,2761,370,
1880,7,28,2023,11,5,54,725,-4177,263,4877,-367,4179,426,
1881,7,28,2023,11,5,54,735,-1681,-646,5433,-866,6970,693,
1882,7,28,2023,11,5,54,745,-147,-1431,6144,-825,10098,1130,
1883,7,28,2023,11,5,54,755,1418,-1466,5742,-502,12690,1766,
1884,7,28,2023,11,5,54,765,-651,-958,6511,-735,15000,2439,
1885,7,28,2023,11,5,54,775,-1422,-941,3563,-314,15905,3532,
1886,7,28,2023,11,5,54,785,-4840,787,3973,927,17738,4357,
1887,7,28,2023,11,5,54,795,-1641,-1407,4475,375,18938,4057,
1888,7,28,2023,11,5,54,805,-2884,-592,4233,373,19787,3966,
1889,7,28,2023,11,5,54,815,-6993,-2063,5385,-648,20360,3703,
1890,7,28,2023,11,5,54,825,-7685,-765,2909,-753,19200,3486,
1891,7,28,2023,11,5,54,835,-10957,-1058,3846,-743,18318,3616,
1892,7,28,2023,11,5,54,845,-7769,-1790,4974,-269,16132,3460,
1893,7,28,2023,11,5,54,855,-5761,-1967,4309,646,14413,3581,
1894,7,28,2023,11,5,54,865,-4605,780,1984,1627,14156,4014,
1895,7,28,2023,11,5,54,875,-6345,790,3154,1047,15006,4387,
1896,7,28,2023,11,5,54,885,-12587,-2235,6437,160,14109,4236,
1897,7,28,2023,11,5,54,895,-11851,-4293,10189,1281,9261,3675,
1898,7,28,2023,11,5,54,905,-6666,-1564,8637,2371,4293,3260,
1899,7,28,2023,11,5,54,915,-4735,-140,7733,1903,2763,3705,
1900,7,28,2023,11,5,54,925,-4303,-307,7552,26,2808,4396,
1901,7,28,2023,11,5,54,935,-5556,-1801,8099,-2047,2933,4890,
1902,7,28,2023,11,5,54,945,-7025,-3754,8684,-3414,2177,5089,
1903,7,28,2023,11,5,54,955,-7498,-4862,9053,-3811,627,5037,
1904,7,28,2023,11,5,54,965,-6858,-5302,9002,-3705,-1019,4682,
1905,7,28,2023,11,5,54,975,-5786,-5651,8516,-3382,-2423,4090,
1906,7,28,2023,11,5,54,985,-4838,-5888,7901,-2771,-3694,3372,
1907,7,28,2023,11,5,54,995,-3730,-5856,7260,-1966,-4927,2632,
1908,7,28,2023,11,5,55,5,-2459,-5426,6459,-1281,-6042,1911,
1909,7,28,2023,11,5,55,15,-1493,-5041,5767,-1034,-6820,1166,
1910,7,28,2023,11,5,55,25,-1763,-4891,5790,-1124,-7318,313,
1911,7,28,2023,11,5,55,35,-2457,-5139,5893,-1388,-8217,-881,
1912,7,28,2023,11,5,55,45,-1616,-5604,5301,-1419,-9728,-2276,
1913,7,28,2023,11,5,55,55,-836,-4791,4968,-1006,-11057,-3532,
1914,7,28,2023,11,5,55,65,-1086,-3140,5127,-1130,-11895,-4659,
1915,7,28,2023,11,5,55,75,-1899,-2443,5328,-2307,-12521,-5710,
1916,7,28,2023,11,5,55,85,-3541,-3049,5609,-3570,-13225,-6513,
1917,7,28,2023,11,5,55,95,-4827,-3633,5611,-3912,-14332,-6903,
1918,7,28,2023,11,5,55,105,-5236,-3277,5583,-3507,-15471,-6917,
1919,7,28,2023,11,5,55,115,-5566,-2372,5612,-3340,-16166,-6775,
1920,7,28,2023,11,5,55,125,-6219,-2144,5710,-3906,-16412,-6720,
1921,7,28,2023,11,5,55,135,-6954,-2496,6191,-4630,-16343,-6869,
1922,7,28,2023,11,5,55,145,-7786,-2482,7372,-5004,-16151,-7205,
1923,7,28,2023,11,5,55,155,-8974,-2552,8911,-5436,-16150,-7644,
1924,7,28,2023,11,5,55,165,-11100,-3692,9806,-6013,-16487,-8037,
1925,7,28,2023,11,5,55,175,-13602,-3117,8552,-5872,-16917,-8685,
1926,7,28,2023,11,5,55,185,-15982,-809,6247,-5628,-16569,-9627,
1927,7,28,2023,11,5,55,195,-17504,534,3100,-5662,-15247,-10425,
1928,7,28,2023,11,5,55,205,-20072,1420,-275,-4752,-13249,-10566,
1929,7,28,2023,11,5,55,215,-21560,3072,-3044,-2951,-11527,-9447,
1930,7,28,2023,11,5,55,225,-19672,7569,-4697,-1917,-9827,-7406,
1931,7,28,2023,11,5,55,235,-21105,9836,-7258,-3153,-7327,-5891,
1932,7,28,2023,11,5,55,245,-23509,7592,-11487,-3475,-4983,-4576,
1933,7,28,2023,11,5,55,255,-21168,7847,-14306,-413,-3123,-2595,
1934,7,28,2023,11,5,55,265,-18220,10306,-12995,1993,-470,-580,
1935,7,28,2023,11,5,55,275,-18021,7314,-10274,1162,2285,277,
1936,7,28,2023,11,5,55,285,-15405,2796,-9223,1400,3873,17,
1937,7,28,2023,11,5,55,295,-13022,2390,-12440,4859,5958,132,
1938,7,28,2023,11,5,55,305,-3218,8640,-10403,8951,10963,1457,
1939,7,28,2023,11,5,55,315,-9942,8656,9550,6403,17895,2460,
1940,7,28,2023,11,5,55,325,-27515,13016,20986,3954,16449,4928,
1941,7,28,2023,11,5,55,335,-27460,-5351,18357,4881,6415,7693,
1942,7,28,2023,11,5,55,345,-3399,-8369,8977,4564,-319,3348,
1943,7,28,2023,11,5,55,355,-358,1266,10196,3225,-792,1271,
1944,7,28,2023,11,5,55,365,-3151,-1168,4364,2549,-1244,1644,
1945,7,28,2023,11,5,55,375,-5489,4006,-900,1876,-625,1061,
1946,7,28,2023,11,5,55,385,-4724,2877,2630,911,40,309,
1947,7,28,2023,11,5,55,395,-571,-1827,4768,85,-280,-640,
1948,7,28,2023,11,5,55,405,-387,-3109,6124,-9,-517,-564,
1949,7,28,2023,11,5,55,415,-884,-1546,7047,-12,109,-183,
1950,7,28,2023,11,5,55,425,-3737,-960,4128,-45,725,-54,
1951,7,28,2023,11,5,55,435,-4446,-421,4006,-7,1349,107,
1952,7,28,2023,11,5,55,445,-1993,-326,4271,-70,1529,47,
1953,7,28,2023,11,5,55,455,-246,-1817,4911,-80,2046,-48,
1954,7,28,2023,11,5,55,465,-1666,-1503,4837,-165,2772,80,
1955,7,28,2023,11,5,55,475,-2616,-908,5481,-479,4075,141,
1956,7,28,2023,11,5,55,495,-1344,-1536,6110,-861,9142,947,
1957,7,28,2023,11,5,55,505,341,-1551,6056,-608,11618,1629,
1958,7,28,2023,11,5,55,515,-504,-236,5929,-461,13730,2388,
1959,7,28,2023,11,5,55,525,566,-1175,5224,-52,14787,3176,
1960,7,28,2023,11,5,55,535,-4152,500,2265,1204,16390,3563,
1961,7,28,2023,11,5,55,545,-3997,-323,4568,960,18068,3474,
1962,7,28,2023,11,5,55,555,-3194,-2662,4597,316,18845,3479,
1963,7,28,2023,11,5,55,565,-8406,-1362,5978,150,18924,3444,
1964,7,28,2023,11,5,55,575,-14703,-2132,5869,-116,16662,3216,
1965,7,28,2023,11,5,55,585,-14778,-741,2645,836,11965,3570,
1966,7,28,2023,11,5,55,595,-8608,2227,-1448,1265,8371,3651,
1967,7,28,2023,11,5,55,605,-6233,3843,-376,355,8796,4494,
1968,7,28,2023,11,5,55,615,-13299,32,5171,-1429,9758,5259,
1969,7,28,2023,11,5,55,625,-9453,-3585,6906,-1800,8048,4874,
1970,7,28,2023,11,5,55,635,-5559,-3196,6174,-688,7995,4625,
1971,7,28,2023,11,5,55,645,-6922,-3113,8774,177,9714,4515,
1972,7,28,2023,11,5,55,655,-6700,-4042,10430,60,10309,4112,
1973,7,28,2023,11,5,55,665,-5652,-5164,11503,126,10102,3958,
1974,7,28,2023,11,5,55,675,-4588,-5240,11847,532,9592,4082,
1975,7,28,2023,11,5,55,685,-3952,-4486,11930,599,9027,4081,
1976,7,28,2023,11,5,55,695,-3710,-3920,11784,-153,8390,3809,
1977,7,28,2023,11,5,55,705,-3872,-4112,11767,-1256,7670,3530,
1978,7,28,2023,11,5,55,715,-4191,-4855,11713,-2049,6629,3378,
1979,7,28,2023,11,5,55,725,-4150,-5696,11603,-2127,4984,3199,
1980,7,28,2023,11,5,55,735,-3797,-6180,11299,-1521,2709,2732,
1981,7,28,2023,11,5,55,745,-2176,-6005,10327,-519,7,2017,
1982,7,28,2023,11,5,55,755,-73,-5305,8968,368,-2388,1341,
1983,7,28,2023,11,5,55,765,1291,-4675,7549,692,-4155,839,
1984,7,28,2023,11,5,55,775,1597,-4437,6468,521,-5527,262,
1985,7,28,2023,11,5,55,785,877,-4700,5867,268,-6874,-549,
1986,7,28,2023,11,5,55,795,422,-4886,5399,196,-8581,-1656,
1987,7,28,2023,11,5,55,805,540,-4357,5037,212,-10452,-2981,
1988,7,28,2023,11,5,55,815,270,-3084,4868,-57,-11961,-4482,
1989,7,28,2023,11,5,55,825,-497,-1993,4919,-909,-12972,-5943,
1990,7,28,2023,11,5,55,835,-1925,-1510,5236,-2028,-13701,-7071,
1991,7,28,2023,11,5,55,845,-3957,-1718,5671,-2811,-14440,-7748,
1992,7,28,2023,11,5,55,855,-5746,-2159,6160,-2735,-15411,-8012,
1993,7,28,2023,11,5,55,865,-6805,-1928,6691,-1971,-16561,-8007,
1994,7,28,2023,11,5,55,875,-7572,-1454,7098,-1333,-17650,-7763,
1995,7,28,2023,11,5,55,885,-7781,-1391,7123,-1248,-18526,-7385,
