Packet #, Month, Day, Year, Hour, Minute, Second, MS, ACC X, ACC Y, ACC Z, GYR X, GYR Y, GYR Z
1,7,28,2023,12,52,22,416,2297,1110,3213,-4,-1,5,
2,7,28,2023,12,52,22,426,2294,1111,3205,-6,0,6,
3,7,28,2023,12,52,22,436,2294,1116,3208,-4,-3,7,
4,7,28,2023,12,52,22,446,2297,1109,3209,-4,-6,6,
5,7,28,2023,12,52,22,456,2301,1111,3206,-4,-6,6,
6,7,28,2023,12,52,22,466,2300,1106,3208,-5,-6,5,
7,7,28,2023,12,52,22,476,2297,1113,3210,-4,-3,2,
8,7,28,2023,12,52,22,486,2294,1110,3210,-1,-2,-1,
9,7,28,2023,12,52,22,496,2295,1105,3204,-1,-4,1,
10,7,28,2023,12,52,22,506,2292,1115,3207,-4,-5,-2,
11,7,28,2023,12,52,22,516,2292,1116,3209,-3,0,-1,
12,7,28,2023,12,52,22,526,2291,1113,3213,-2,3,-1,
13,7,28,2023,12,52,22,536,2293,1108,3211,-4,6,1,
14,7,28,2023,12,52,22,546,2289,1110,3206,-3,3,2,
15,7,28,2023,12,52,22,556,2297,1111,3218,-5,2,-2,
16,7,28,2023,12,52,22,566,2295,1112,3211,-5,4,2,
17,7,28,2023,12,52,22,576,2290,1111,3210,-3,0,0,
18,7,28,2023,12,52,22,586,2292,1110,3212,-3,-3,-3,
19,7,28,2023,12,52,22,596,2289,1107,3205,0,-2,-3,
20,7,28,2023,12,52,22,606,2292,1105,3204,-2,0,-3,
21,7,28,2023,12,52,22,616,2292,1114,3203,0,4,-2,
22,7,28,2023,12,52,22,626,2284,1109,3203,-2,6,-4,
23,7,28,2023,12,52,22,636,2287,1109,3211,-4,5,-2,
24,7,28,2023,12,52,22,646,2293,1113,3213,-6,7,1,
25,7,28,2023,12,52,22,656,2281,1117,3211,-6,5,0,
26,7,28,2023,12,52,22,666,2281,1110,3209,-3,3,1,
27,7,28,2023,12,52,22,676,2284,1113,3214,-5,3,0,
28,7,28,2023,12,52,22,686,2289,1113,3212,-8,3,2,
29,7,28,2023,12,52,22,696,2282,1113,3209,-3,1,2,
30,7,28,2023,12,52,22,706,2291,1114,3202,-5,2,2,
31,7,28,2023,12,52,22,716,2289,1113,3210,-8,4,3,
32,7,28,2023,12,52,22,726,2288,1114,3210,-10,3,5,
33,7,28,2023,12,52,22,736,2290,1117,3208,-9,7,7,
34,7,28,2023,12,52,22,746,2291,1110,3212,-12,9,6,
35,7,28,2023,12,52,22,756,2294,1112,3210,-9,6,5,
36,7,28,2023,12,52,22,766,2283,1106,3212,-10,7,3,
37,7,28,2023,12,52,22,776,2281,1115,3208,-12,11,2,
38,7,28,2023,12,52,22,786,2280,1113,3209,-14,12,2,
39,7,28,2023,12,52,22,796,2286,1106,3212,-14,11,7,
40,7,28,2023,12,52,22,806,2284,1109,3219,-9,8,6,
41,7,28,2023,12,52,22,816,2285,1114,3223,-10,5,4,
42,7,28,2023,12,52,22,826,2281,1110,3221,-8,2,7,
43,7,28,2023,12,52,22,836,2286,1095,3213,-6,0,5,
44,7,28,2023,12,52,22,846,2284,1111,3203,-4,0,-4,
45,7,28,2023,12,52,22,856,2280,1111,3203,-6,4,-1,
46,7,28,2023,12,52,22,866,2283,1105,3207,-10,10,0,
47,7,28,2023,12,52,22,876,2281,1118,3209,-8,12,0,
48,7,28,2023,12,52,22,886,2283,1113,3224,-8,12,4,
49,7,28,2023,12,52,22,896,2288,1095,3215,-13,13,2,
50,7,28,2023,12,52,22,906,2282,1110,3209,-8,11,6,
51,7,28,2023,12,52,22,916,2287,1110,3217,-9,12,6,
52,7,28,2023,12,52,22,926,2287,1114,3212,-12,15,3,
53,7,28,2023,12,52,22,936,2278,1104,3215,-15,17,4,
54,7,28,2023,12,52,22,946,2291,1103,3216,-12,19,1,
55,7,28,2023,12,52,22,956,2283,1109,3215,-10,21,3,
56,7,28,2023,12,52,22,966,2287,1102,3223,-9,18,1,
57,7,28,2023,12,52,22,976,2277,1104,3215,-11,19,-2,
58,7,28,2023,12,52,22,986,2275,1111,3215,-9,17,-2,
59,7,28,2023,12,52,22,996,2279,1101,3213,-12,18,-1,
60,7,28,2023,12,52,23,6,2280,1110,3218,-11,20,-3,
61,7,28,2023,12,52,23,16,2282,1108,3224,-5,16,-4,
62,7,28,2023,12,52,23,26,2269,1115,3219,-6,18,-1,
63,7,28,2023,12,52,23,36,2274,1112,3221,-9,15,-2,
64,7,28,2023,12,52,23,46,2283,1104,3219,-9,12,-4,
65,7,28,2023,12,52,23,56,2284,1105,3222,-6,17,-4,
66,7,28,2023,12,52,23,66,2269,1109,3221,-9,15,-1,
67,7,28,2023,12,52,23,76,2270,1109,3220,-9,12,0,
68,7,28,2023,12,52,23,86,2275,1111,3220,-9,12,-1,
69,7,28,2023,12,52,23,96,2281,1100,3224,-8,14,-3,
70,7,28,2023,12,52,23,106,2270,1107,3223,-4,13,-3,
71,7,28,2023,12,52,23,116,2274,1110,3225,1,7,-5,
72,7,28,2023,12,52,23,126,2274,1107,3228,-1,4,-6,
73,7,28,2023,12,52,23,136,2272,1110,3225,-1,5,-3,
74,7,28,2023,12,52,23,146,2272,1113,3223,2,4,-7,
75,7,28,2023,12,52,23,156,2273,1109,3220,0,2,-8,
76,7,28,2023,12,52,23,166,2267,1113,3217,2,8,-8,
77,7,28,2023,12,52,23,176,2266,1120,3218,4,5,-4,
78,7,28,2023,12,52,23,186,2275,1107,3223,3,4,-4,
79,7,28,2023,12,52,23,196,2270,1100,3227,1,1,-3,
80,7,28,2023,12,52,23,206,2266,1110,3229,1,1,-6,
81,7,28,2023,12,52,23,216,2269,1108,3221,-3,4,-6,
82,7,28,2023,12,52,23,226,2277,1111,3219,0,2,-6,
83,7,28,2023,12,52,23,236,2271,1120,3218,2,4,-3,
84,7,28,2023,12,52,23,246,2267,1115,3224,-4,5,0,
85,7,28,2023,12,52,23,256,2271,1121,3217,-10,7,0,
86,7,28,2023,12,52,23,276,2273,1116,3223,-11,13,3,
87,7,28,2023,12,52,23,286,2275,1111,3231,-10,10,7,
88,7,28,2023,12,52,23,296,2260,1111,3213,-9,11,5,
89,7,28,2023,12,52,23,306,2275,1114,3214,-11,12,4,
90,7,28,2023,12,52,23,316,2259,1111,3212,-17,15,4,
91,7,28,2023,12,52,23,326,2262,1114,3217,-18,21,8,
92,7,28,2023,12,52,23,336,2272,1112,3219,-22,22,9,
93,7,28,2023,12,52,23,346,2275,1106,3229,-22,23,12,
94,7,28,2023,12,52,23,356,2259,1112,3230,-22,22,8,
95,7,28,2023,12,52,23,366,2265,1103,3228,-26,21,10,
96,7,28,2023,12,52,23,376,2273,1095,3225,-22,23,11,
97,7,28,2023,12,52,23,386,2272,1107,3219,-24,23,11,
98,7,28,2023,12,52,23,396,2262,1111,3232,-22,20,7,
99,7,28,2023,12,52,23,406,2260,1103,3235,-20,20,11,
100,7,28,2023,12,52,23,416,2255,1092,3237,-19,15,12,
101,7,28,2023,12,52,23,426,2260,1096,3247,-11,8,8,
102,7,28,2023,12,52,23,436,2275,1088,3254,-3,-3,4,
103,7,28,2023,12,52,23,446,2275,1084,3240,2,-8,-2,
104,7,28,2023,12,52,23,456,2269,1090,3234,8,-8,-4,
105,7,28,2023,12,52,23,466,2274,1104,3229,15,-11,-4,
106,7,28,2023,12,52,23,476,2265,1099,3224,18,-9,-8,
107,7,28,2023,12,52,23,486,2270,1104,3219,16,-7,-15,
108,7,28,2023,12,52,23,496,2268,1110,3219,17,-5,-16,
109,7,28,2023,12,52,23,506,2261,1111,3228,16,-3,-13,
110,7,28,2023,12,52,23,516,2265,1107,3225,10,-1,-12,
111,7,28,2023,12,52,23,526,2255,1116,3228,7,-1,-13,
112,7,28,2023,12,52,23,536,2263,1110,3225,6,-2,-12,
113,7,28,2023,12,52,23,546,2265,1111,3227,10,-1,-15,
114,7,28,2023,12,52,23,556,2253,1110,3230,8,-1,-9,
115,7,28,2023,12,52,23,566,2259,1126,3227,9,-4,-6,
116,7,28,2023,12,52,23,576,2257,1124,3226,8,-3,-4,
117,7,28,2023,12,52,23,586,2259,1116,3229,6,-6,3,
118,7,28,2023,12,52,23,596,2265,1112,3229,-1,-7,2,
119,7,28,2023,12,52,23,606,2258,1116,3222,-1,-9,2,
120,7,28,2023,12,52,23,616,2253,1119,3221,-2,-8,5,
121,7,28,2023,12,52,23,626,2263,1104,3234,-6,-4,7,
122,7,28,2023,12,52,23,636,2265,1108,3225,-5,-5,8,
123,7,28,2023,12,52,23,646,2261,1114,3226,-7,-5,5,
124,7,28,2023,12,52,23,656,2266,1104,3224,-7,-3,6,
125,7,28,2023,12,52,23,666,2263,1103,3232,-3,-4,7,
126,7,28,2023,12,52,23,676,2265,1102,3230,-3,-2,6,
127,7,28,2023,12,52,23,686,2265,1106,3223,-2,0,4,
128,7,28,2023,12,52,23,696,2267,1111,3227,-3,0,2,
129,7,28,2023,12,52,23,706,2267,1103,3228,-3,-2,4,
130,7,28,2023,12,52,23,716,2266,1104,3224,1,1,5,
131,7,28,2023,12,52,23,726,2258,1108,3231,-3,0,-2,
132,7,28,2023,12,52,23,736,2261,1115,3232,-1,1,-3,
133,7,28,2023,12,52,23,746,2263,1112,3236,0,0,-1,
134,7,28,2023,12,52,23,756,2261,1112,3227,2,-1,0,
135,7,28,2023,12,52,23,766,2256,1113,3238,-4,-3,3,
136,7,28,2023,12,52,23,776,2262,1108,3231,-5,-8,7,
137,7,28,2023,12,52,23,786,2260,1117,3225,-2,-4,4,
138,7,28,2023,12,52,23,796,2265,1097,3234,-2,-2,3,
139,7,28,2023,12,52,23,806,2265,1095,3224,-1,-5,1,
140,7,28,2023,12,52,23,816,2254,1117,3233,3,-7,0,
141,7,28,2023,12,52,23,826,2258,1113,3233,2,-8,-2,
142,7,28,2023,12,52,23,836,2257,1115,3234,4,-11,0,
143,7,28,2023,12,52,23,846,2259,1126,3232,6,-12,3,
144,7,28,2023,12,52,23,856,2258,1119,3226,3,-16,1,
145,7,28,2023,12,52,23,866,2263,1108,3229,-1,-15,5,
146,7,28,2023,12,52,23,876,2257,1111,3235,3,-15,6,
147,7,28,2023,12,52,23,886,2265,1112,3235,0,-17,3,
148,7,28,2023,12,52,23,896,2262,1109,3235,0,-14,1,
149,7,28,2023,12,52,23,906,2260,1111,3229,0,-15,2,
150,7,28,2023,12,52,23,916,2260,1119,3233,3,-15,4,
151,7,28,2023,12,52,23,926,2267,1117,3235,3,-13,1,
152,7,28,2023,12,52,23,936,2264,1112,3229,-3,-10,4,
153,7,28,2023,12,52,23,946,2254,1109,3233,-4,-8,4,
154,7,28,2023,12,52,23,956,2264,1117,3232,-3,-7,2,
155,7,28,2023,12,52,23,966,2267,1110,3235,-1,-12,7,
156,7,28,2023,12,52,23,976,2264,1103,3228,0,-9,9,
157,7,28,2023,12,52,23,986,2264,1105,3227,0,-8,2,
158,7,28,2023,12,52,23,996,2263,1117,3223,1,-8,2,
159,7,28,2023,12,52,24,6,2263,1115,3224,-1,-10,3,
160,7,28,2023,12,52,24,16,2265,1121,3219,-2,-10,2,
161,7,28,2023,12,52,24,26,2267,1122,3220,-6,-5,7,
162,7,28,2023,12,52,24,36,2258,1113,3217,-10,-4,8,
163,7,28,2023,12,52,24,46,2260,1113,3225,-9,0,10,
164,7,28,2023,12,52,24,56,2258,1113,3230,-8,-1,11,
165,7,28,2023,12,52,24,66,2268,1110,3230,-8,-5,11,
166,7,28,2023,12,52,24,76,2269,1109,3228,-10,-4,10,
167,7,28,2023,12,52,24,86,2267,1113,3228,-8,-4,10,
168,7,28,2023,12,52,24,96,2266,1111,3220,-8,-4,6,
169,7,28,2023,12,52,24,106,2265,1108,3222,-8,-2,6,
170,7,28,2023,12,52,24,116,2257,1106,3227,-8,-2,11,
171,7,28,2023,12,52,24,136,2258,1108,3228,-8,-2,5,
172,7,28,2023,12,52,24,146,2268,1106,3232,-4,-4,5,
173,7,28,2023,12,52,24,156,2256,1112,3228,-4,-7,7,
174,7,28,2023,12,52,24,166,2260,1114,3234,-7,-3,10,
175,7,28,2023,12,52,24,176,2261,1106,3227,-8,-3,9,
176,7,28,2023,12,52,24,186,2264,1114,3219,-7,-2,5,
177,7,28,2023,12,52,24,196,2269,1110,3227,-6,-6,6,
178,7,28,2023,12,52,24,206,2262,1105,3236,-8,-10,5,
179,7,28,2023,12,52,24,216,2262,1102,3236,-6,-6,2,
180,7,28,2023,12,52,24,226,2261,1108,3231,-3,-8,6,
181,7,28,2023,12,52,24,236,2256,1112,3228,-1,-10,4,
182,7,28,2023,12,52,24,246,2265,1110,3227,-1,-9,7,
183,7,28,2023,12,52,24,256,2265,1111,3231,-1,-8,6,
184,7,28,2023,12,52,24,266,2259,1104,3231,-2,-4,5,
185,7,28,2023,12,52,24,276,2266,1115,3223,-5,-3,7,
186,7,28,2023,12,52,24,286,2263,1114,3230,-4,-2,9,
187,7,28,2023,12,52,24,296,2265,1109,3231,-4,-3,3,
188,7,28,2023,12,52,24,306,2265,1109,3230,-4,-3,3,
189,7,28,2023,12,52,24,316,2258,1108,3242,-4,-4,6,
190,7,28,2023,12,52,24,326,2260,1106,3236,-3,-6,5,
191,7,28,2023,12,52,24,336,2266,1102,3229,-3,-5,5,
192,7,28,2023,12,52,24,346,2265,1104,3231,-3,-9,4,
193,7,28,2023,12,52,24,356,2259,1111,3229,-1,-9,2,
194,7,28,2023,12,52,24,366,2265,1104,3236,-1,-10,2,
195,7,28,2023,12,52,24,376,2267,1107,3234,-2,-13,6,
196,7,28,2023,12,52,24,386,2263,1102,3234,0,-12,1,
197,7,28,2023,12,52,24,396,2265,1090,3234,6,-14,2,
198,7,28,2023,12,52,24,406,2262,1111,3225,10,-15,-1,
199,7,28,2023,12,52,24,416,2262,1109,3231,9,-18,-5,
200,7,28,2023,12,52,24,426,2267,1103,3221,13,-19,-5,
201,7,28,2023,12,52,24,436,2257,1120,3221,7,-17,-3,
202,7,28,2023,12,52,24,446,2257,1120,3222,9,-18,-3,
203,7,28,2023,12,52,24,456,2260,1112,3227,7,-15,-1,
204,7,28,2023,12,52,24,466,2266,1112,3219,2,-12,0,
205,7,28,2023,12,52,24,476,2269,1117,3221,0,-8,0,
206,7,28,2023,12,52,24,486,2263,1112,3226,-3,-10,5,
207,7,28,2023,12,52,24,496,2258,1113,3236,-3,-7,5,
208,7,28,2023,12,52,24,506,2260,1115,3225,-2,-10,5,
209,7,28,2023,12,52,24,516,2261,1116,3226,-3,-10,6,
210,7,28,2023,12,52,24,526,2266,1115,3226,-3,-10,7,
211,7,28,2023,12,52,24,536,2263,1110,3227,-5,-11,12,
212,7,28,2023,12,52,24,546,2266,1118,3225,-8,-10,12,
213,7,28,2023,12,52,24,556,2264,1118,3229,-10,-10,12,
214,7,28,2023,12,52,24,566,2262,1108,3228,-14,-9,10,
215,7,28,2023,12,52,24,576,2268,1109,3227,-14,-8,12,
216,7,28,2023,12,52,24,586,2265,1111,3229,-14,-7,16,
217,7,28,2023,12,52,24,596,2265,1107,3236,-13,-6,13,
218,7,28,2023,12,52,24,606,2262,1104,3224,-14,-5,15,
219,7,28,2023,12,52,24,616,2261,1108,3225,-13,-5,11,
220,7,28,2023,12,52,24,626,2263,1110,3227,-12,-4,10,
221,7,28,2023,12,52,24,636,2262,1116,3227,-16,-3,13,
222,7,28,2023,12,52,24,646,2268,1102,3229,-15,-1,18,
223,7,28,2023,12,52,24,656,2271,1100,3220,-14,1,18,
224,7,28,2023,12,52,24,666,2261,1103,3226,-13,2,12,
225,7,28,2023,12,52,24,676,2269,1115,3236,-16,4,12,
226,7,28,2023,12,52,24,686,2266,1105,3227,-15,4,13,
227,7,28,2023,12,52,24,696,2267,1109,3225,-16,2,12,
228,7,28,2023,12,52,24,706,2259,1109,3229,-14,3,13,
229,7,28,2023,12,52,24,716,2265,1097,3231,-17,0,15,
230,7,28,2023,12,52,24,726,2266,1096,3238,-13,-1,8,
231,7,28,2023,12,52,24,736,2260,1110,3234,-10,-1,8,
232,7,28,2023,12,52,24,746,2261,1098,3232,-11,-4,12,
233,7,28,2023,12,52,24,756,2263,1100,3239,-5,-9,9,
234,7,28,2023,12,52,24,766,2265,1092,3238,1,-15,6,
235,7,28,2023,12,52,24,776,2269,1092,3238,5,-16,6,
236,7,28,2023,12,52,24,786,2271,1104,3233,4,-16,2,
237,7,28,2023,12,52,24,796,2271,1098,3228,10,-16,-5,
238,7,28,2023,12,52,24,806,2264,1104,3229,10,-14,-8,
239,7,28,2023,12,52,24,816,2275,1109,3226,9,-14,-6,
240,7,28,2023,12,52,24,826,2265,1110,3232,9,-15,-3,
241,7,28,2023,12,52,24,836,2265,1100,3228,8,-15,-1,
242,7,28,2023,12,52,24,846,2274,1096,3220,7,-14,-2,
243,7,28,2023,12,52,24,856,2264,1099,3227,9,-12,-5,
244,7,28,2023,12,52,24,866,2260,1109,3215,6,-5,-8,
245,7,28,2023,12,52,24,876,2261,1109,3222,6,-5,-6,
246,7,28,2023,12,52,24,886,2260,1112,3225,6,-5,-5,
247,7,28,2023,12,52,24,896,2258,1115,3239,2,-2,-3,
248,7,28,2023,12,52,24,906,2259,1113,3224,-1,-5,0,
249,7,28,2023,12,52,24,916,2270,1103,3230,0,-4,2,
250,7,28,2023,12,52,24,926,2267,1106,3234,-3,-3,5,
251,7,28,2023,12,52,24,936,2263,1105,3228,-7,-6,3,
252,7,28,2023,12,52,24,946,2258,1113,3226,-3,-4,2,
253,7,28,2023,12,52,24,956,2258,1103,3229,-5,-3,4,
254,7,28,2023,12,52,24,966,2266,1111,3235,-7,-5,5,
255,7,28,2023,12,52,24,976,2264,1116,3238,-5,-7,8,
256,7,28,2023,12,52,24,996,2262,1102,3225,-4,-9,10,
257,7,28,2023,12,52,25,6,2257,1104,3232,-8,-7,9,
258,7,28,2023,12,52,25,16,2268,1104,3229,-5,-9,9,
259,7,28,2023,12,52,25,26,2268,1104,3229,-2,-10,7,
260,7,28,2023,12,52,25,36,2262,1102,3229,-5,-10,7,
261,7,28,2023,12,52,25,46,2263,1102,3232,-4,-9,8,
262,7,28,2023,12,52,25,56,2261,1099,3228,-2,-13,8,
263,7,28,2023,12,52,25,66,2264,1098,3229,-3,-12,7,
264,7,28,2023,12,52,25,76,2269,1107,3227,-2,-6,5,
265,7,28,2023,12,52,25,86,2267,1103,3231,1,-9,7,
266,7,28,2023,12,52,25,96,2263,1104,3229,0,-13,6,
267,7,28,2023,12,52,25,106,2265,1110,3223,2,-11,3,
268,7,28,2023,12,52,25,116,2264,1104,3230,3,-11,3,
269,7,28,2023,12,52,25,126,2261,1106,3229,-2,-9,3,
270,7,28,2023,12,52,25,136,2268,1105,3227,0,-13,3,
271,7,28,2023,12,52,25,146,2270,1111,3226,2,-10,2,
272,7,28,2023,12,52,25,156,2264,1109,3226,1,-10,3,
273,7,28,2023,12,52,25,166,2264,1100,3224,2,-8,3,
274,7,28,2023,12,52,25,176,2263,1098,3235,3,-10,0,
275,7,28,2023,12,52,25,186,2262,1104,3229,1,-12,1,
276,7,28,2023,12,52,25,196,2267,1103,3230,2,-14,-1,
277,7,28,2023,12,52,25,206,2273,1112,3225,3,-12,0,
278,7,28,2023,12,52,25,216,2269,1113,3224,3,-12,5,
279,7,28,2023,12,52,25,226,2267,1105,3235,2,-11,3,
280,7,28,2023,12,52,25,236,2269,1099,3233,2,-13,1,
281,7,28,2023,12,52,25,246,2269,1092,3239,7,-16,1,
282,7,28,2023,12,52,25,256,2272,1095,3232,15,-22,-10,
283,7,28,2023,12,52,25,266,2263,1138,3223,15,-23,-9,
284,7,28,2023,12,52,25,276,2272,1103,3226,5,-17,-1,
285,7,28,2023,12,52,25,286,2262,1112,3225,6,-19,-2,
286,7,28,2023,12,52,25,296,2266,1112,3220,4,-13,2,
287,7,28,2023,12,52,25,306,2267,1115,3220,-1,-11,3,
288,7,28,2023,12,52,25,316,2277,1109,3223,-3,-9,2,
289,7,28,2023,12,52,25,326,2267,1106,3229,-9,-7,5,
290,7,28,2023,12,52,25,336,2265,1113,3227,-6,-4,5,
291,7,28,2023,12,52,25,346,2266,1110,3229,-4,-7,6,
292,7,28,2023,12,52,25,356,2264,1101,3232,-5,-5,5,
293,7,28,2023,12,52,25,366,2265,1107,3227,-4,-6,4,
294,7,28,2023,12,52,25,376,2264,1112,3224,-5,-5,2,
295,7,28,2023,12,52,25,386,2261,1109,3229,-6,-8,4,
296,7,28,2023,12,52,25,396,2266,1101,3225,-6,-7,5,
297,7,28,2023,12,52,25,406,2268,1103,3224,-1,-8,5,
298,7,28,2023,12,52,25,416,2262,1108,3229,-1,-10,6,
299,7,28,2023,12,52,25,426,2273,1107,3224,-3,-9,4,
300,7,28,2023,12,52,25,436,2272,1110,3226,-3,-10,3,
301,7,28,2023,12,52,25,446,2266,1114,3223,0,-6,6,
302,7,28,2023,12,52,25,456,2265,1109,3226,-6,-8,6,
303,7,28,2023,12,52,25,466,2266,1107,3228,-6,-9,5,
304,7,28,2023,12,52,25,476,2267,1105,3225,-4,-7,5,
305,7,28,2023,12,52,25,486,2269,1105,3222,-4,-9,6,
306,7,28,2023,12,52,25,496,2266,1103,3231,-5,-9,7,
307,7,28,2023,12,52,25,506,2272,1106,3223,0,-12,1,
308,7,28,2023,12,52,25,516,2273,1105,3226,4,-9,2,
309,7,28,2023,12,52,25,526,2273,1108,3228,1,-8,1,
310,7,28,2023,12,52,25,536,2266,1112,3225,2,-11,1,
311,7,28,2023,12,52,25,546,2268,1107,3226,1,-6,1,
312,7,28,2023,12,52,25,556,2268,1111,3235,0,-5,5,
313,7,28,2023,12,52,25,566,2259,1109,3233,-4,-5,4,
314,7,28,2023,12,52,25,576,2270,1105,3230,-4,-6,2,
315,7,28,2023,12,52,25,586,2269,1110,3233,-4,-7,1,
316,7,28,2023,12,52,25,596,2272,1101,3229,2,-11,0,
317,7,28,2023,12,52,25,606,2265,1107,3224,2,-16,1,
318,7,28,2023,12,52,25,616,2270,1111,3226,1,-17,4,
319,7,28,2023,12,52,25,626,2265,1109,3231,-2,-14,2,
320,7,28,2023,12,52,25,636,2272,1102,3229,2,-17,4,
321,7,28,2023,12,52,25,646,2269,1102,3224,5,-16,5,
322,7,28,2023,12,52,25,656,2276,1107,3222,9,-20,0,
323,7,28,2023,12,52,25,666,2266,1102,3219,8,-18,-1,
324,7,28,2023,12,52,25,676,2264,1111,3223,7,-17,2,
325,7,28,2023,12,52,25,686,2274,1117,3221,6,-12,0,
326,7,28,2023,12,52,25,696,2270,1108,3221,4,-13,2,
327,7,28,2023,12,52,25,706,2271,1106,3229,6,-18,3,
328,7,28,2023,12,52,25,716,2268,1110,3228,7,-18,5,
329,7,28,2023,12,52,25,726,2268,1115,3219,6,-17,3,
330,7,28,2023,12,52,25,736,2271,1103,3226,6,-18,3,
331,7,28,2023,12,52,25,746,2274,1102,3227,5,-18,4,
332,7,28,2023,12,52,25,756,2276,1102,3226,4,-15,1,
333,7,28,2023,12,52,25,766,2276,1109,3228,7,-14,-1,
334,7,28,2023,12,52,25,776,2274,1112,3231,5,-16,0,
335,7,28,2023,12,52,25,786,2271,1114,3222,6,-18,4,
336,7,28,2023,12,52,25,796,2270,1119,3220,3,-14,2,
337,7,28,2023,12,52,25,806,2267,1117,3219,-2,-7,0,
338,7,28,2023,12,52,25,816,2267,1118,3218,-1,-8,3,
339,7,28,2023,12,52,25,826,2267,1114,3224,1,-9,7,
340,7,28,2023,12,52,25,836,2265,1109,3231,-3,-13,12,
341,7,28,2023,12,52,25,856,2274,1117,3216,-6,-10,5,
342,7,28,2023,12,52,25,866,2270,1110,3226,-7,-7,2,
343,7,28,2023,12,52,25,876,2275,1112,3226,-7,-9,6,
344,7,28,2023,12,52,25,886,2278,1115,3225,-5,-6,7,
345,7,28,2023,12,52,25,896,2278,1114,3218,-6,-9,8,
346,7,28,2023,12,52,25,906,2277,1114,3221,-5,-10,8,
347,7,28,2023,12,52,25,916,2266,1114,3217,-8,-4,8,
348,7,28,2023,12,52,25,926,2272,1111,3229,-13,-4,10,
349,7,28,2023,12,52,25,936,2270,1114,3227,-10,-6,12,
350,7,28,2023,12,52,25,946,2268,1102,3228,-11,-3,13,
351,7,28,2023,12,52,25,956,2274,1098,3226,-9,-3,11,
352,7,28,2023,12,52,25,966,2278,1095,3226,-8,-6,8,
353,7,28,2023,12,52,25,976,2276,1094,3226,-7,-6,6,
354,7,28,2023,12,52,25,986,2274,1110,3224,-6,-6,4,
355,7,28,2023,12,52,25,996,2271,1106,3237,-6,-2,4,
356,7,28,2023,12,52,26,6,2273,1107,3224,-4,-4,2,
357,7,28,2023,12,52,26,16,2278,1112,3225,-1,-4,3,
358,7,28,2023,12,52,26,26,2268,1117,3232,-2,-5,-2,
359,7,28,2023,12,52,26,36,2271,1112,3224,0,-8,0,
360,7,28,2023,12,52,26,46,2272,1110,3224,-1,-9,-3,
361,7,28,2023,12,52,26,56,2270,1108,3218,-1,-8,-3,
362,7,28,2023,12,52,26,66,2270,1109,3228,1,-8,0,
363,7,28,2023,12,52,26,76,2278,1107,3223,-1,-5,-3,
364,7,28,2023,12,52,26,86,2272,1106,3225,-2,-1,0,
365,7,28,2023,12,52,26,96,2271,1114,3226,0,-2,-1,
366,7,28,2023,12,52,26,106,2268,1102,3224,1,-6,0,
367,7,28,2023,12,52,26,116,2268,1109,3214,-1,-5,4,
368,7,28,2023,12,52,26,126,2264,1123,3217,-3,-3,4,
369,7,28,2023,12,52,26,136,2264,1113,3221,-5,-1,5,
370,7,28,2023,12,52,26,146,2267,1108,3220,-6,0,7,
371,7,28,2023,12,52,26,156,2274,1109,3227,-7,-1,4,
372,7,28,2023,12,52,26,166,2274,1104,3222,-7,-1,2,
373,7,28,2023,12,52,26,176,2269,1110,3226,-4,-1,3,
374,7,28,2023,12,52,26,186,2267,1107,3231,-5,-6,4,
375,7,28,2023,12,52,26,196,2269,1107,3227,-1,-9,4,
376,7,28,2023,12,52,26,206,2272,1112,3218,0,-4,4,
377,7,28,2023,12,52,26,216,2271,1112,3216,-1,-5,2,
378,7,28,2023,12,52,26,226,2269,1110,3225,-1,-5,2,
379,7,28,2023,12,52,26,236,2265,1108,3226,-4,-3,3,
380,7,28,2023,12,52,26,246,2267,1104,3223,-4,-3,5,
381,7,28,2023,12,52,26,256,2266,1107,3224,-5,-1,3,
382,7,28,2023,12,52,26,266,2267,1104,3225,-3,-2,2,
383,7,28,2023,12,52,26,276,2264,1104,3226,-1,-2,2,
384,7,28,2023,12,52,26,286,2265,1109,3227,-1,-2,1,
385,7,28,2023,12,52,26,296,2262,1109,3227,-2,-1,-1,
386,7,28,2023,12,52,26,306,2269,1113,3225,0,-6,0,
387,7,28,2023,12,52,26,316,2267,1109,3227,-1,-5,3,
388,7,28,2023,12,52,26,326,2268,1109,3224,-1,-4,1,
389,7,28,2023,12,52,26,336,2272,1110,3228,-2,-6,1,
390,7,28,2023,12,52,26,346,2267,1106,3226,-2,-4,3,
391,7,28,2023,12,52,26,356,2270,1114,3228,-4,-4,4,
392,7,28,2023,12,52,26,366,2276,1106,3222,-6,-4,5,
393,7,28,2023,12,52,26,376,2268,1108,3221,0,-8,5,
394,7,28,2023,12,52,26,386,2269,1109,3227,-1,-8,7,
395,7,28,2023,12,52,26,396,2267,1103,3228,0,-7,2,
396,7,28,2023,12,52,26,406,2268,1107,3227,-2,-11,3,
397,7,28,2023,12,52,26,416,2264,1108,3230,-1,-8,3,
398,7,28,2023,12,52,26,426,2272,1116,3231,-3,-7,4,
399,7,28,2023,12,52,26,436,2274,1110,3222,-2,-8,6,
400,7,28,2023,12,52,26,446,2272,1110,3223,0,-8,4,
401,7,28,2023,12,52,26,456,2271,1109,3224,-1,-9,4,
402,7,28,2023,12,52,26,466,2272,1104,3229,0,-9,5,
403,7,28,2023,12,52,26,476,2270,1114,3229,1,-10,6,
404,7,28,2023,12,52,26,486,2270,1108,3223,1,-8,5,
405,7,28,2023,12,52,26,496,2272,1111,3223,-3,-6,3,
406,7,28,2023,12,52,26,506,2270,1116,3215,0,-6,3,
407,7,28,2023,12,52,26,516,2269,1113,3218,-2,-9,5,
408,7,28,2023,12,52,26,526,2273,1112,3229,-2,-7,5,
409,7,28,2023,12,52,26,536,2268,1110,3227,-5,-7,2,
410,7,28,2023,12,52,26,546,2266,1106,3227,0,-8,2,
411,7,28,2023,12,52,26,556,2271,1108,3224,1,-10,2,
412,7,28,2023,12,52,26,566,2268,1111,3224,2,-8,4,
413,7,28,2023,12,52,26,576,2266,1115,3225,2,-7,7,
414,7,28,2023,12,52,26,586,2263,1108,3222,-1,-7,4,
415,7,28,2023,12,52,26,596,2266,1116,3226,-4,-7,3,
416,7,28,2023,12,52,26,606,2274,1111,3226,-1,-4,5,
417,7,28,2023,12,52,26,616,2274,1110,3226,-4,-9,3,
418,7,28,2023,12,52,26,626,2272,1107,3216,-6,-9,3,
419,7,28,2023,12,52,26,636,2274,1103,3223,-4,-7,5,
420,7,28,2023,12,52,26,646,2272,1101,3227,-5,-7,4,
421,7,28,2023,12,52,26,656,2272,1109,3221,-3,-6,5,
422,7,28,2023,12,52,26,666,2267,1110,3230,-3,-10,4,
423,7,28,2023,12,52,26,676,2263,1107,3227,-5,-12,3,
424,7,28,2023,12,52,26,686,2264,1115,3225,-5,-9,3,
425,7,28,2023,12,52,26,696,2264,1120,3222,-2,-7,5,
426,7,28,2023,12,52,26,716,2274,1113,3230,-5,-8,5,
427,7,28,2023,12,52,26,726,2270,1107,3233,-6,-7,8,
428,7,28,2023,12,52,26,736,2273,1105,3227,-7,-7,5,
429,7,28,2023,12,52,26,746,2272,1111,3221,-5,-6,6,
430,7,28,2023,12,52,26,756,2268,1109,3232,0,-7,7,
431,7,28,2023,12,52,26,766,2266,1111,3228,-3,-6,5,
432,7,28,2023,12,52,26,776,2269,1113,3226,-6,-5,5,
433,7,28,2023,12,52,26,786,2276,1105,3231,-6,-5,2,
434,7,28,2023,12,52,26,796,2277,1111,3231,-5,-5,3,
435,7,28,2023,12,52,26,806,2265,1109,3228,-2,-3,2,
436,7,28,2023,12,52,26,816,2271,1109,3224,-2,-6,4,
437,7,28,2023,12,52,26,826,2270,1108,3220,-1,-8,6,
438,7,28,2023,12,52,26,836,2271,1104,3225,-3,-11,5,
439,7,28,2023,12,52,26,846,2273,1108,3225,-6,-6,5,
440,7,28,2023,12,52,26,856,2268,1105,3226,-1,-8,5,
441,7,28,2023,12,52,26,866,2267,1108,3222,-2,-8,7,
442,7,28,2023,12,52,26,876,2280,1107,3230,-1,-9,3,
443,7,28,2023,12,52,26,886,2268,1107,3222,1,-6,1,
444,7,28,2023,12,52,26,896,2267,1109,3227,1,-5,2,
445,7,28,2023,12,52,26,906,2269,1102,3223,-2,-7,1,
446,7,28,2023,12,52,26,916,2268,1108,3221,-1,-8,4,
447,7,28,2023,12,52,26,926,2273,1112,3226,-5,-3,3,
448,7,28,2023,12,52,26,936,2274,1104,3222,-7,-5,4,
449,7,28,2023,12,52,26,946,2272,1107,3228,-3,-2,6,
450,7,28,2023,12,52,26,956,2277,1105,3223,-2,-3,3,
451,7,28,2023,12,52,26,966,2266,1114,3219,0,-3,4,
452,7,28,2023,12,52,26,976,2263,1111,3221,-2,-2,4,
453,7,28,2023,12,52,26,986,2266,1105,3224,-5,-3,3,
454,7,28,2023,12,52,26,996,2271,1106,3218,-3,-2,7,
455,7,28,2023,12,52,27,6,2267,1107,3223,-6,0,3,
456,7,28,2023,12,52,27,16,2263,1104,3230,-3,0,0,
457,7,28,2023,12,52,27,26,2262,1107,3233,0,-1,0,
458,7,28,2023,12,52,27,36,2269,1117,3230,-4,-3,4,
459,7,28,2023,12,52,27,46,2264,1110,3230,-2,-6,5,
460,7,28,2023,12,52,27,56,2268,1103,3230,-3,-4,2,
461,7,28,2023,12,52,27,66,2270,1108,3226,-4,-4,5,
462,7,28,2023,12,52,27,76,2263,1112,3234,-3,-6,4,
463,7,28,2023,12,52,27,86,2268,1110,3230,-4,-6,5,
464,7,28,2023,12,52,27,96,2267,1105,3231,-4,-5,4,
465,7,28,2023,12,52,27,106,2267,1102,3226,-1,-3,3,
466,7,28,2023,12,52,27,116,2270,1106,3230,-1,-4,2,
467,7,28,2023,12,52,27,126,2270,1101,3226,-1,-5,-1,
468,7,28,2023,12,52,27,136,2269,1108,3223,1,-4,1,
469,7,28,2023,12,52,27,146,2261,1110,3227,1,-7,2,
470,7,28,2023,12,52,27,156,2264,1105,3230,5,-9,2,
471,7,28,2023,12,52,27,166,2264,1114,3221,2,-9,1,
472,7,28,2023,12,52,27,176,2262,1113,3221,2,-6,4,
473,7,28,2023,12,52,27,186,2266,1106,3228,3,-8,3,
474,7,28,2023,12,52,27,196,2269,1103,3228,1,-11,2,
475,7,28,2023,12,52,27,206,2273,1116,3223,0,-11,-1,
476,7,28,2023,12,52,27,216,2271,1114,3220,-1,-9,1,
477,7,28,2023,12,52,27,226,2266,1105,3232,0,-8,4,
478,7,28,2023,12,52,27,236,2269,1102,3226,-2,-7,5,
479,7,28,2023,12,52,27,246,2265,1108,3228,0,-10,2,
480,7,28,2023,12,52,27,256,2269,1104,3227,6,-13,3,
481,7,28,2023,12,52,27,266,2272,1105,3227,6,-15,0,
482,7,28,2023,12,52,27,276,2274,1099,3231,8,-16,-3,
483,7,28,2023,12,52,27,286,2267,1113,3225,15,-20,-10,
484,7,28,2023,12,52,27,296,2264,1113,3231,13,-19,-6,
485,7,28,2023,12,52,27,306,2273,1111,3233,19,-23,-7,
486,7,28,2023,12,52,27,316,2262,1128,3230,12,-23,-7,
487,7,28,2023,12,52,27,326,2275,1112,3227,12,-22,-6,
488,7,28,2023,12,52,27,336,2271,1114,3229,15,-25,-5,
489,7,28,2023,12,52,27,346,2274,1117,3216,11,-24,-1,
490,7,28,2023,12,52,27,356,2267,1123,3214,4,-21,-1,
491,7,28,2023,12,52,27,366,2262,1115,3224,2,-18,1,
492,7,28,2023,12,52,27,376,2270,1102,3220,3,-19,2,
493,7,28,2023,12,52,27,386,2266,1112,3218,1,-16,2,
494,7,28,2023,12,52,27,396,2277,1117,3220,0,-11,1,
495,7,28,2023,12,52,27,406,2270,1110,3225,0,-13,-1,
496,7,28,2023,12,52,27,416,2259,1113,3224,-1,-12,2,
497,7,28,2023,12,52,27,426,2271,1116,3221,-3,-13,3,
498,7,28,2023,12,52,27,436,2270,1117,3227,-5,-13,1,
499,7,28,2023,12,52,27,446,2273,1114,3220,-5,-10,2,
500,7,28,2023,12,52,27,456,2269,1114,3214,-8,-9,4,
501,7,28,2023,12,52,27,466,2267,1114,3224,-6,-7,6,
502,7,28,2023,12,52,27,476,2274,1116,3222,-5,-8,7,
503,7,28,2023,12,52,27,486,2274,1114,3218,-9,-8,7,
504,7,28,2023,12,52,27,496,2266,1123,3217,-10,-7,7,
505,7,28,2023,12,52,27,506,2268,1118,3216,-6,-5,3,
506,7,28,2023,12,52,27,516,2266,1115,3230,-9,-6,7,
507,7,28,2023,12,52,27,526,2274,1110,3224,-10,-9,11,
508,7,28,2023,12,52,27,536,2271,1109,3223,-11,-7,7,
509,7,28,2023,12,52,27,546,2267,1115,3220,-11,-3,6,
510,7,28,2023,12,52,27,556,2269,1111,3229,-13,-4,9,
511,7,28,2023,12,52,27,576,2279,1114,3222,-11,-6,9,
512,7,28,2023,12,52,27,586,2266,1116,3226,-12,-1,7,
513,7,28,2023,12,52,27,596,2272,1114,3221,-13,-2,10,
514,7,28,2023,12,52,27,606,2277,1105,3222,-16,-2,11,
515,7,28,2023,12,52,27,616,2270,1110,3218,-12,-2,7,
516,7,28,2023,12,52,27,626,2274,1110,3216,-13,-1,12,
517,7,28,2023,12,52,27,636,2283,1097,3233,-15,-1,11,
518,7,28,2023,12,52,27,646,2260,1101,3221,-14,-2,7,
519,7,28,2023,12,52,27,656,2258,1127,3217,-11,0,8,
520,7,28,2023,12,52,27,666,2272,1102,3223,-14,2,11,
521,7,28,2023,12,52,27,676,2273,1100,3228,-11,-3,9,
522,7,28,2023,12,52,27,686,2272,1110,3224,-9,-4,10,
523,7,28,2023,12,52,27,696,2277,1101,3224,-8,-2,9,
524,7,28,2023,12,52,27,706,2274,1100,3225,-7,-1,8,
525,7,28,2023,12,52,27,716,2272,1101,3235,-7,-3,7,
526,7,28,2023,12,52,27,726,2273,1097,3226,-8,-1,6,
527,7,28,2023,12,52,27,736,2277,1109,3229,-7,-2,5,
528,7,28,2023,12,52,27,746,2268,1110,3231,-5,-1,4,
529,7,28,2023,12,52,27,756,2273,1110,3226,-4,-3,5,
530,7,28,2023,12,52,27,766,2273,1111,3221,-1,-1,5,
531,7,28,2023,12,52,27,776,2277,1108,3236,2,-3,7,
532,7,28,2023,12,52,27,786,2266,1108,3224,1,-7,2,
533,7,28,2023,12,52,27,796,2260,1102,3228,0,-5,1,
534,7,28,2023,12,52,27,806,2264,1109,3232,3,-4,5,
535,7,28,2023,12,52,27,816,2271,1103,3222,4,-8,6,
536,7,28,2023,12,52,27,826,2269,1104,3218,6,-11,1,
537,7,28,2023,12,52,27,836,2267,1115,3221,5,-7,2,
538,7,28,2023,12,52,27,846,2279,1113,3235,4,-7,3,
539,7,28,2023,12,52,27,856,2269,1107,3221,6,-9,-1,
540,7,28,2023,12,52,27,866,2270,1114,3218,5,-12,1,
541,7,28,2023,12,52,27,876,2268,1108,3222,1,-8,4,
542,7,28,2023,12,52,27,886,2270,1107,3227,5,-6,3,
543,7,28,2023,12,52,27,896,2271,1101,3224,4,-7,1,
544,7,28,2023,12,52,27,906,2269,1105,3234,11,-8,-2,
545,7,28,2023,12,52,27,916,2274,1115,3229,11,-10,-4,
546,7,28,2023,12,52,27,926,2277,1109,3225,11,-13,-2,
547,7,28,2023,12,52,27,936,2271,1117,3226,8,-11,-4,
548,7,28,2023,12,52,27,946,2269,1113,3223,9,-11,-5,
549,7,28,2023,12,52,27,956,2276,1104,3220,12,-15,-3,
550,7,28,2023,12,52,27,966,2266,1107,3212,10,-9,-5,
551,7,28,2023,12,52,27,976,2271,1107,3214,8,-7,-7,
552,7,28,2023,12,52,27,986,2271,1110,3224,7,-10,-8,
553,7,28,2023,12,52,27,996,2270,1112,3230,11,-8,-7,
554,7,28,2023,12,52,28,6,2272,1110,3218,11,-4,-9,
555,7,28,2023,12,52,28,16,2266,1111,3223,7,-7,-8,
556,7,28,2023,12,52,28,26,2272,1114,3218,7,-4,-4,
557,7,28,2023,12,52,28,36,2277,1113,3217,4,-4,-7,
558,7,28,2023,12,52,28,46,2270,1108,3219,1,-1,-4,
559,7,28,2023,12,52,28,56,2274,1119,3220,1,0,-1,
560,7,28,2023,12,52,28,66,2272,1114,3227,-1,0,-1,
561,7,28,2023,12,52,28,76,2268,1110,3237,-2,0,-2,
562,7,28,2023,12,52,28,86,2273,1104,3227,3,-2,-4,
563,7,28,2023,12,52,28,96,2268,1109,3218,1,-5,-5,
564,7,28,2023,12,52,28,106,2259,1114,3224,-2,-7,-8,
565,7,28,2023,12,52,28,116,2262,1113,3232,-1,-5,-4,
566,7,28,2023,12,52,28,126,2268,1114,3225,8,-8,-6,
567,7,28,2023,12,52,28,136,2268,1112,3229,10,-7,-4,
568,7,28,2023,12,52,28,146,2260,1113,3228,4,-10,-5,
569,7,28,2023,12,52,28,156,2272,1122,3220,7,-15,-2,
570,7,28,2023,12,52,28,166,2268,1116,3220,6,-14,-3,
571,7,28,2023,12,52,28,176,2267,1122,3227,5,-11,-4,
572,7,28,2023,12,52,28,186,2270,1115,3224,5,-12,-1,
573,7,28,2023,12,52,28,196,2269,1105,3222,5,-14,1,
574,7,28,2023,12,52,28,206,2258,1125,3222,5,-14,-1,
575,7,28,2023,12,52,28,216,2266,1115,3223,5,-15,-2,
576,7,28,2023,12,52,28,226,2274,1115,3223,6,-19,1,
577,7,28,2023,12,52,28,236,2275,1108,3222,2,-15,1,
578,7,28,2023,12,52,28,246,2269,1117,3220,6,-17,-2,
579,7,28,2023,12,52,28,256,2273,1106,3217,7,-15,-1,
580,7,28,2023,12,52,28,266,2270,1118,3222,7,-10,-1,
581,7,28,2023,12,52,28,276,2266,1131,3219,3,-11,-2,
582,7,28,2023,12,52,28,286,2273,1115,3222,3,-9,1,
583,7,28,2023,12,52,28,296,2271,1114,3223,0,-8,0,
584,7,28,2023,12,52,28,306,2267,1120,3221,-1,-9,-1,
585,7,28,2023,12,52,28,316,2267,1117,3219,-2,-5,3,
586,7,28,2023,12,52,28,326,2267,1116,3220,-3,-5,6,
587,7,28,2023,12,52,28,336,2278,1122,3223,-1,-3,4,
588,7,28,2023,12,52,28,346,2273,1114,3228,-2,-4,2,
589,7,28,2023,12,52,28,356,2272,1114,3220,-5,-3,4,
590,7,28,2023,12,52,28,366,2265,1117,3224,-7,-3,3,
591,7,28,2023,12,52,28,376,2267,1111,3226,-5,-2,1,
592,7,28,2023,12,52,28,386,2267,1120,3220,-5,-2,3,
593,7,28,2023,12,52,28,396,2268,1121,3221,-6,-4,-1,
594,7,28,2023,12,52,28,406,2272,1123,3219,-6,-1,0,
595,7,28,2023,12,52,28,416,2265,1118,3223,-6,0,5,
596,7,28,2023,12,52,28,436,2272,1115,3231,-7,-7,9,
597,7,28,2023,12,52,28,446,2270,1116,3220,-2,-10,9,
598,7,28,2023,12,52,28,456,2273,1109,3231,-1,-14,7,
599,7,28,2023,12,52,28,466,2272,1116,3225,-1,-17,10,
600,7,28,2023,12,52,28,476,2264,1114,3226,1,-18,6,
601,7,28,2023,12,52,28,486,2267,1117,3222,3,-16,7,
602,7,28,2023,12,52,28,496,2267,1124,3223,-1,-14,9,
603,7,28,2023,12,52,28,506,2268,1123,3224,-2,-13,6,
604,7,28,2023,12,52,28,516,2270,1118,3221,-1,-15,6,
605,7,28,2023,12,52,28,526,2271,1118,3220,-3,-13,10,
606,7,28,2023,12,52,28,536,2270,1114,3223,-5,-14,7,
607,7,28,2023,12,52,28,546,2273,1111,3225,-2,-12,9,
608,7,28,2023,12,52,28,556,2265,1116,3220,-1,-15,11,
609,7,28,2023,12,52,28,566,2275,1120,3224,-6,-12,8,
610,7,28,2023,12,52,28,576,2271,1116,3226,-6,-9,9,
611,7,28,2023,12,52,28,586,2267,1123,3223,-8,-14,9,
612,7,28,2023,12,52,28,596,2266,1115,3217,-4,-17,7,
613,7,28,2023,12,52,28,606,2271,1111,3215,-1,-17,9,
614,7,28,2023,12,52,28,616,2279,1110,3222,-1,-17,13,
615,7,28,2023,12,52,28,626,2276,1106,3228,-5,-12,7,
616,7,28,2023,12,52,28,636,2269,1122,3227,0,-17,4,
617,7,28,2023,12,52,28,646,2280,1114,3223,2,-18,7,
618,7,28,2023,12,52,28,656,2269,1114,3219,-1,-16,7,
619,7,28,2023,12,52,28,666,2275,1124,3217,-2,-16,5,
620,7,28,2023,12,52,28,676,2274,1120,3219,-4,-15,8,
621,7,28,2023,12,52,28,686,2273,1113,3221,-2,-16,5,
622,7,28,2023,12,52,28,696,2278,1110,3215,0,-14,6,
623,7,28,2023,12,52,28,706,2275,1116,3226,-2,-8,7,
624,7,28,2023,12,52,28,716,2276,1118,3217,-5,-11,8,
625,7,28,2023,12,52,28,726,2279,1115,3222,-4,-10,6,
626,7,28,2023,12,52,28,736,2278,1116,3222,-2,-11,7,
627,7,28,2023,12,52,28,746,2278,1111,3226,-3,-12,7,
628,7,28,2023,12,52,28,756,2277,1114,3225,0,-13,8,
629,7,28,2023,12,52,28,766,2277,1118,3218,-3,-9,6,
630,7,28,2023,12,52,28,776,2276,1116,3216,-3,-10,7,
631,7,28,2023,12,52,28,786,2271,1112,3214,-3,-10,10,
632,7,28,2023,12,52,28,796,2269,1112,3221,-3,-11,8,
633,7,28,2023,12,52,28,806,2273,1108,3221,1,-13,4,
634,7,28,2023,12,52,28,816,2277,1105,3220,8,-16,3,
635,7,28,2023,12,52,28,826,2269,1120,3220,7,-20,-4,
636,7,28,2023,12,52,28,836,2274,1119,3217,7,-22,-2,
637,7,28,2023,12,52,28,846,2278,1114,3218,6,-18,1,
638,7,28,2023,12,52,28,856,2277,1117,3213,2,-15,-1,
639,7,28,2023,12,52,28,866,2277,1122,3217,4,-13,0,
640,7,28,2023,12,52,28,876,2272,1132,3214,4,-13,2,
641,7,28,2023,12,52,28,886,2274,1120,3223,2,-12,3,
642,7,28,2023,12,52,28,896,2276,1106,3223,3,-16,4,
643,7,28,2023,12,52,28,906,2267,1110,3223,2,-20,3,
644,7,28,2023,12,52,28,916,2278,1111,3229,4,-20,-1,
645,7,28,2023,12,52,28,926,2278,1129,3216,6,-18,-3,
646,7,28,2023,12,52,28,936,2277,1119,3208,8,-22,1,
647,7,28,2023,12,52,28,946,2276,1120,3207,4,-18,2,
648,7,28,2023,12,52,28,956,2273,1123,3220,2,-17,2,
649,7,28,2023,12,52,28,966,2280,1122,3216,3,-16,5,
650,7,28,2023,12,52,28,976,2272,1116,3216,2,-14,6,
651,7,28,2023,12,52,28,986,2276,1121,3213,0,-15,4,
652,7,28,2023,12,52,28,996,2277,1119,3217,0,-17,5,
653,7,28,2023,12,52,29,6,2274,1117,3224,0,-19,4,
654,7,28,2023,12,52,29,16,2281,1117,3222,1,-20,4,
655,7,28,2023,12,52,29,26,2275,1114,3216,5,-19,2,
656,7,28,2023,12,52,29,36,2273,1111,3219,2,-17,5,
657,7,28,2023,12,52,29,46,2277,1114,3219,1,-18,5,
658,7,28,2023,12,52,29,56,2273,1118,3222,0,-21,2,
659,7,28,2023,12,52,29,66,2280,1119,3212,5,-23,3,
660,7,28,2023,12,52,29,76,2287,1120,3208,4,-20,4,
661,7,28,2023,12,52,29,86,2287,1120,3208,4,-20,4,
662,7,28,2023,12,52,29,96,2287,1120,3208,4,-20,4,
663,7,28,2023,12,52,29,106,2275,1117,3219,1,-15,7,
664,7,28,2023,12,52,29,116,2291,1117,3217,-2,-13,7,
665,7,28,2023,12,52,29,126,2286,1122,3213,-2,-10,6,
666,7,28,2023,12,52,29,136,2277,1120,3215,-2,-12,7,
667,7,28,2023,12,52,29,146,2276,1123,3217,-5,-12,9,
668,7,28,2023,12,52,29,156,2275,1121,3216,1,-13,9,
669,7,28,2023,12,52,29,166,2281,1119,3218,-5,-13,9,
670,7,28,2023,12,52,29,176,2283,1116,3216,-5,-12,10,
671,7,28,2023,12,52,29,186,2279,1107,3216,-2,-12,8,
672,7,28,2023,12,52,29,196,2288,1109,3211,-3,-11,5,
673,7,28,2023,12,52,29,206,2279,1116,3212,-2,-11,4,
674,7,28,2023,12,52,29,216,2275,1129,3216,-1,-15,7,
675,7,28,2023,12,52,29,226,2275,1114,3212,-2,-13,11,
676,7,28,2023,12,52,29,236,2281,1113,3213,-3,-12,9,
677,7,28,2023,12,52,29,246,2280,1118,3214,-4,-15,7,
678,7,28,2023,12,52,29,256,2280,1125,3217,-5,-13,6,
679,7,28,2023,12,52,29,266,2283,1118,3213,-4,-11,6,
680,7,28,2023,12,52,29,276,2284,1108,3213,-4,-11,4,
681,7,28,2023,12,52,29,296,2279,1122,3211,-2,-10,4,
682,7,28,2023,12,52,29,306,2279,1120,3205,-1,-8,4,
683,7,28,2023,12,52,29,316,2282,1116,3207,0,-11,3,
684,7,28,2023,12,52,29,326,2281,1120,3210,-1,-7,3,
685,7,28,2023,12,52,29,336,2279,1120,3217,-2,-3,4,
686,7,28,2023,12,52,29,346,2280,1122,3211,-6,0,3,
687,7,28,2023,12,52,29,356,2281,1122,3213,-6,-5,4,
688,7,28,2023,12,52,29,366,2276,1120,3219,-9,-6,6,
689,7,28,2023,12,52,29,376,2285,1114,3212,-7,-9,2,
690,7,28,2023,12,52,29,386,2276,1123,3217,-5,-9,2,
691,7,28,2023,12,52,29,396,2283,1118,3219,-3,-7,4,
692,7,28,2023,12,52,29,406,2288,1112,3216,-4,-7,7,
693,7,28,2023,12,52,29,416,2278,1112,3213,-2,-9,4,
694,7,28,2023,12,52,29,426,2280,1111,3219,0,-10,5,
695,7,28,2023,12,52,29,436,2288,1113,3214,-1,-9,6,
696,7,28,2023,12,52,29,446,2284,1113,3211,-1,-8,4,
697,7,28,2023,12,52,29,456,2289,1108,3207,-3,-7,-2,
698,7,28,2023,12,52,29,466,2294,1110,3210,-2,-3,0,
699,7,28,2023,12,52,29,476,2274,1120,3200,-2,2,1,
700,7,28,2023,12,52,29,486,2275,1128,3210,-6,5,1,
701,7,28,2023,12,52,29,496,2269,1126,3222,-4,3,3,
702,7,28,2023,12,52,29,506,2271,1117,3221,-7,-1,6,
703,7,28,2023,12,52,29,516,2280,1109,3208,-6,-4,3,
704,7,28,2023,12,52,29,526,2280,1115,3217,-1,-8,1,
705,7,28,2023,12,52,29,536,2280,1118,3214,-1,-9,2,
706,7,28,2023,12,52,29,546,2285,1115,3215,1,-6,2,
707,7,28,2023,12,52,29,556,2285,1125,3219,-1,-2,-2,
708,7,28,2023,12,52,29,566,2272,1117,3231,0,-6,3,
709,7,28,2023,12,52,29,576,2279,1103,3217,4,-10,5,
710,7,28,2023,12,52,29,586,2284,1107,3211,3,-12,-1,
711,7,28,2023,12,52,29,596,2283,1118,3202,4,-10,-2,
712,7,28,2023,12,52,29,606,2284,1123,3211,2,-6,-2,
713,7,28,2023,12,52,29,616,2282,1125,3208,2,-6,-1,
714,7,28,2023,12,52,29,626,2275,1114,3204,-2,0,1,
715,7,28,2023,12,52,29,636,2274,1114,3214,-2,1,-3,
716,7,28,2023,12,52,29,646,2268,1115,3224,0,-4,0,
717,7,28,2023,12,52,29,656,2276,1110,3221,2,-7,1,
718,7,28,2023,12,52,29,666,2278,1111,3218,6,-10,-2,
719,7,28,2023,12,52,29,676,2276,1117,3210,7,-15,-2,
720,7,28,2023,12,52,29,686,2278,1120,3221,10,-16,-1,
721,7,28,2023,12,52,29,696,2282,1117,3220,9,-14,-2,
722,7,28,2023,12,52,29,706,2279,1116,3211,5,-14,0,
723,7,28,2023,12,52,29,716,2282,1124,3207,5,-11,-1,
724,7,28,2023,12,52,29,726,2281,1122,3208,3,-7,3,
725,7,28,2023,12,52,29,736,2281,1118,3209,2,-5,-2,
726,7,28,2023,12,52,29,746,2286,1123,3212,3,-3,0,
727,7,28,2023,12,52,29,756,2283,1121,3216,3,-4,1,
728,7,28,2023,12,52,29,766,2278,1117,3218,0,-6,1,
729,7,28,2023,12,52,29,776,2270,1118,3214,3,-8,-1,
730,7,28,2023,12,52,29,786,2275,1114,3215,3,-12,1,
731,7,28,2023,12,52,29,796,2269,1121,3216,3,-16,-1,
732,7,28,2023,12,52,29,806,2282,1125,3213,7,-16,-1,
733,7,28,2023,12,52,29,816,2288,1125,3209,5,-14,0,
734,7,28,2023,12,52,29,826,2283,1122,3213,6,-14,2,
735,7,28,2023,12,52,29,836,2281,1121,3217,2,-14,3,
736,7,28,2023,12,52,29,846,2281,1125,3214,0,-14,5,
737,7,28,2023,12,52,29,856,2285,1123,3216,-1,-11,4,
738,7,28,2023,12,52,29,866,2277,1119,3220,-5,-16,0,
739,7,28,2023,12,52,29,876,2280,1122,3234,2,-18,0,
740,7,28,2023,12,52,29,886,2282,1125,3236,10,-30,3,
741,7,28,2023,12,52,29,896,2279,1118,3235,11,-40,2,
742,7,28,2023,12,52,29,906,2281,1101,3233,10,-53,-6,
743,7,28,2023,12,52,29,916,2284,1097,3235,4,-71,-18,
744,7,28,2023,12,52,29,926,2289,1129,3213,-9,-83,-36,
745,7,28,2023,12,52,29,936,2312,1129,3181,-18,-80,-40,
746,7,28,2023,12,52,29,946,2304,1135,3191,-14,-66,-41,
747,7,28,2023,12,52,29,956,2320,1135,3205,-16,-48,-39,
748,7,28,2023,12,52,29,966,2358,1031,3187,-22,-25,-36,
749,7,28,2023,12,52,29,976,2271,1108,3173,-17,0,-58,
750,7,28,2023,12,52,29,986,2201,1232,3191,-25,10,-54,
751,7,28,2023,12,52,29,996,2257,1152,3205,-41,10,-15,
752,7,28,2023,12,52,30,6,2241,1145,3201,-44,-2,1,
753,7,28,2023,12,52,30,16,2242,1155,3228,-32,-10,4,
754,7,28,2023,12,52,30,26,2288,1145,3210,-22,-23,21,
755,7,28,2023,12,52,30,36,2288,1102,3202,-19,-29,31,
756,7,28,2023,12,52,30,46,2291,1084,3198,-7,-27,21,
757,7,28,2023,12,52,30,56,2305,1071,3187,8,-21,17,
758,7,28,2023,12,52,30,66,2307,1103,3160,16,-9,8,
759,7,28,2023,12,52,30,76,2279,1095,3161,19,12,-4,
760,7,28,2023,12,52,30,86,2262,1059,3178,23,27,-21,
761,7,28,2023,12,52,30,96,2219,1107,3205,42,29,-41,
762,7,28,2023,12,52,30,106,2210,1118,3264,59,9,-50,
763,7,28,2023,12,52,30,116,2254,1113,3286,79,-34,-60,
764,7,28,2023,12,52,30,126,2291,1141,3264,112,-77,-69,
765,7,28,2023,12,52,30,136,2321,1127,3234,118,-100,-59,
766,7,28,2023,12,52,30,156,2310,1118,3189,124,-92,-64,
767,7,28,2023,12,52,30,166,2304,1123,3174,105,-71,-56,
768,7,28,2023,12,52,30,176,2314,1130,3174,99,-57,-53,
769,7,28,2023,12,52,30,186,2296,1153,3190,107,-52,-65,
770,7,28,2023,12,52,30,196,2312,1155,3207,99,-43,-65,
771,7,28,2023,12,52,30,206,2311,1180,3202,85,-35,-56,
772,7,28,2023,12,52,30,216,2311,1181,3185,74,-32,-52,
773,7,28,2023,12,52,30,226,2304,1193,3173,63,-26,-44,
774,7,28,2023,12,52,30,236,2304,1188,3177,46,-14,-32,
775,7,28,2023,12,52,30,246,2304,1187,3182,33,0,-25,
776,7,28,2023,12,52,30,256,2298,1173,3186,20,8,-17,
777,7,28,2023,12,52,30,266,2301,1168,3185,10,19,-10,
778,7,28,2023,12,52,30,276,2303,1176,3198,2,29,-8,
779,7,28,2023,12,52,30,286,2296,1197,3182,-11,36,-2,
780,7,28,2023,12,52,30,296,2278,1214,3182,-26,47,15,
781,7,28,2023,12,52,30,306,2257,1192,3202,-43,54,33,
782,7,28,2023,12,52,30,316,2278,1143,3224,-48,48,42,
783,7,28,2023,12,52,30,326,2284,1110,3232,-37,32,39,
784,7,28,2023,12,52,30,336,2287,1124,3230,-17,12,29,
785,7,28,2023,12,52,30,346,2291,1136,3217,-3,-5,17,
786,7,28,2023,12,52,30,356,2304,1146,3196,3,-10,6,
787,7,28,2023,12,52,30,366,2305,1168,3187,6,-7,4,
788,7,28,2023,12,52,30,376,2298,1181,3182,1,-1,8,
789,7,28,2023,12,52,30,386,2288,1171,3195,-10,11,15,
790,7,28,2023,12,52,30,396,2293,1164,3193,-23,15,17,
791,7,28,2023,12,52,30,406,2291,1146,3190,-32,25,17,
792,7,28,2023,12,52,30,416,2304,1134,3190,-36,32,13,
793,7,28,2023,12,52,30,426,2278,1148,3196,-36,44,9,
794,7,28,2023,12,52,30,436,2267,1185,3195,-41,47,11,
795,7,28,2023,12,52,30,446,2293,1178,3196,-51,47,16,
796,7,28,2023,12,52,30,456,2292,1155,3207,-53,53,19,
797,7,28,2023,12,52,30,466,2285,1147,3214,-51,57,21,
798,7,28,2023,12,52,30,476,2284,1127,3206,-50,55,20,
799,7,28,2023,12,52,30,486,2261,1138,3193,-50,53,14,
800,7,28,2023,12,52,30,496,2225,1186,3210,-51,53,20,
801,7,28,2023,12,52,30,506,2259,1167,3218,-57,42,34,
802,7,28,2023,12,52,30,516,2288,1094,3230,-49,29,35,
803,7,28,2023,12,52,30,526,2291,1094,3233,-27,14,24,
804,7,28,2023,12,52,30,536,2284,1103,3216,-8,7,7,
805,7,28,2023,12,52,30,546,2265,1132,3203,4,3,1,
806,7,28,2023,12,52,30,556,2243,1158,3210,8,4,-3,
807,7,28,2023,12,52,30,566,2248,1159,3215,9,-5,-5,
808,7,28,2023,12,52,30,576,2264,1144,3220,12,-14,-1,
809,7,28,2023,12,52,30,586,2272,1157,3210,14,-16,3,
810,7,28,2023,12,52,30,596,2279,1145,3214,13,-13,-1,
811,7,28,2023,12,52,30,606,2273,1144,3210,10,-13,-3,
812,7,28,2023,12,52,30,616,2276,1147,3191,11,-12,-6,
813,7,28,2023,12,52,30,626,2264,1173,3202,8,-5,-3,
814,7,28,2023,12,52,30,636,2278,1158,3208,4,-2,-1,
815,7,28,2023,12,52,30,646,2274,1152,3211,-2,-1,7,
816,7,28,2023,12,52,30,656,2248,1177,3206,-7,-1,16,
817,7,28,2023,12,52,30,666,2239,1164,3214,-9,-8,22,
818,7,28,2023,12,52,30,676,2260,1133,3217,-15,-17,24,
819,7,28,2023,12,52,30,686,2242,1138,3203,-3,-30,17,
820,7,28,2023,12,52,30,696,2234,1126,3225,8,-49,17,
821,7,28,2023,12,52,30,706,2224,1166,3244,26,-70,12,
822,7,28,2023,12,52,30,716,2253,1162,3228,34,-87,16,
823,7,28,2023,12,52,30,726,2284,1096,3230,38,-94,15,
824,7,28,2023,12,52,30,736,2251,1164,3205,46,-101,5,
825,7,28,2023,12,52,30,746,2255,1192,3212,38,-107,17,
826,7,28,2023,12,52,30,756,2294,1126,3225,29,-112,36,
827,7,28,2023,12,52,30,766,2314,1099,3226,40,-125,32,
828,7,28,2023,12,52,30,776,2300,1117,3221,52,-144,14,
829,7,28,2023,12,52,30,786,2311,1116,3198,64,-154,3,
830,7,28,2023,12,52,30,796,2305,1135,3199,68,-154,-6,
831,7,28,2023,12,52,30,806,2317,1154,3201,69,-154,-9,
832,7,28,2023,12,52,30,816,2332,1146,3184,66,-156,-7,
833,7,28,2023,12,52,30,826,2328,1150,3170,67,-148,-7,
834,7,28,2023,12,52,30,836,2313,1152,3176,65,-139,-6,
835,7,28,2023,12,52,30,846,2316,1166,3186,63,-133,-9,
836,7,28,2023,12,52,30,856,2329,1146,3183,64,-127,-10,
837,7,28,2023,12,52,30,866,2332,1150,3169,65,-119,-16,
838,7,28,2023,12,52,30,876,2328,1156,3157,60,-102,-20,
839,7,28,2023,12,52,30,886,2322,1176,3163,58,-91,-24,
840,7,28,2023,12,52,30,896,2333,1159,3159,52,-82,-21,
841,7,28,2023,12,52,30,906,2337,1149,3162,51,-69,-28,
842,7,28,2023,12,52,30,916,2340,1151,3173,49,-58,-39,
843,7,28,2023,12,52,30,926,2340,1154,3162,52,-48,-45,
844,7,28,2023,12,52,30,936,2334,1162,3148,54,-35,-52,
845,7,28,2023,12,52,30,946,2317,1183,3134,49,-19,-57,
846,7,28,2023,12,52,30,956,2314,1208,3143,36,-2,-50,
847,7,28,2023,12,52,30,966,2313,1202,3159,25,15,-37,
848,7,28,2023,12,52,30,976,2310,1179,3175,24,19,-32,
849,7,28,2023,12,52,30,986,2304,1165,3181,22,19,-27,
850,7,28,2023,12,52,30,996,2299,1144,3188,32,9,-36,
851,7,28,2023,12,52,31,16,2309,1168,3186,51,-20,-62,
852,7,28,2023,12,52,31,26,2305,1179,3187,61,-36,-74,
853,7,28,2023,12,52,31,36,2310,1194,3173,60,-37,-72,
854,7,28,2023,12,52,31,46,2318,1208,3160,55,-36,-69,
855,7,28,2023,12,52,31,56,2305,1216,3159,45,-28,-62,
856,7,28,2023,12,52,31,66,2298,1183,3168,32,-21,-54,
857,7,28,2023,12,52,31,76,2305,1169,3176,39,-25,-65,
858,7,28,2023,12,52,31,86,2307,1213,3171,38,-30,-65,
859,7,28,2023,12,52,31,96,2307,1208,3162,34,-33,-62,
860,7,28,2023,12,52,31,106,2303,1240,3168,27,-31,-53,
861,7,28,2023,12,52,31,116,2309,1224,3172,18,-31,-40,
862,7,28,2023,12,52,31,126,2311,1225,3162,3,-27,-22,
863,7,28,2023,12,52,31,136,2307,1216,3165,-2,-25,-14,
864,7,28,2023,12,52,31,146,2321,1204,3166,-6,-27,-4,
865,7,28,2023,12,52,31,156,2323,1190,3147,-8,-25,2,
866,7,28,2023,12,52,31,166,2331,1190,3150,-7,-13,2,
867,7,28,2023,12,52,31,176,2330,1214,3145,-12,4,2,
868,7,28,2023,12,52,31,186,2316,1217,3140,-24,20,8,
869,7,28,2023,12,52,31,196,2308,1231,3148,-34,33,17,
870,7,28,2023,12,52,31,206,2314,1232,3173,-49,44,31,
871,7,28,2023,12,52,31,216,2304,1216,3180,-55,39,45,
872,7,28,2023,12,52,31,226,2296,1205,3192,-60,27,52,
873,7,28,2023,12,52,31,236,2302,1190,3185,-56,14,58,
874,7,28,2023,12,52,31,246,2311,1166,3180,-54,2,61,
875,7,28,2023,12,52,31,256,2312,1173,3169,-51,-3,52,
876,7,28,2023,12,52,31,266,2318,1168,3164,-47,0,42,
877,7,28,2023,12,52,31,276,2320,1154,3165,-41,5,38,
878,7,28,2023,12,52,31,286,2315,1190,3159,-38,9,31,
879,7,28,2023,12,52,31,296,2309,1188,3159,-42,14,32,
880,7,28,2023,12,52,31,306,2316,1172,3165,-41,22,32,
881,7,28,2023,12,52,31,316,2308,1193,3163,-41,29,33,
882,7,28,2023,12,52,31,326,2303,1199,3167,-48,35,39,
883,7,28,2023,12,52,31,336,2314,1186,3184,-53,37,44,
884,7,28,2023,12,52,31,346,2309,1184,3185,-52,36,48,
885,7,28,2023,12,52,31,356,2310,1170,3186,-57,35,49,
886,7,28,2023,12,52,31,366,2312,1145,3183,-55,30,45,
887,7,28,2023,12,52,31,376,2305,1152,3184,-47,31,37,
888,7,28,2023,12,52,31,386,2303,1159,3190,-42,29,27,
889,7,28,2023,12,52,31,396,2301,1168,3193,-38,24,24,
890,7,28,2023,12,52,31,406,2303,1179,3194,-34,16,26,
891,7,28,2023,12,52,31,416,2304,1169,3193,-32,8,23,
892,7,28,2023,12,52,31,426,2308,1171,3190,-28,0,24,
893,7,28,2023,12,52,31,436,2310,1162,3188,-27,-7,24,
894,7,28,2023,12,52,31,446,2312,1150,3173,-23,-4,32,
895,7,28,2023,12,52,31,456,2317,1158,3169,-23,-2,26,
896,7,28,2023,12,52,31,466,2326,1151,3166,-22,9,18,
897,7,28,2023,12,52,31,476,2321,1152,3164,-20,20,15,
898,7,28,2023,12,52,31,486,2312,1167,3164,-20,28,15,
899,7,28,2023,12,52,31,496,2312,1172,3164,-25,37,19,
900,7,28,2023,12,52,31,506,2300,1176,3179,-30,45,19,
901,7,28,2023,12,52,31,516,2299,1170,3180,-35,49,23,
902,7,28,2023,12,52,31,526,2309,1154,3179,-43,53,27,
903,7,28,2023,12,52,31,536,2303,1151,3189,-39,60,16,
904,7,28,2023,12,52,31,546,2293,1157,3196,-36,57,19,
905,7,28,2023,12,52,31,556,2303,1153,3201,-34,52,20,
906,7,28,2023,12,52,31,566,2297,1156,3200,-31,49,12,
907,7,28,2023,12,52,31,576,2294,1164,3195,-31,40,13,
908,7,28,2023,12,52,31,586,2302,1151,3193,-30,36,11,
909,7,28,2023,12,52,31,596,2296,1159,3182,-29,38,9,
910,7,28,2023,12,52,31,606,2302,1161,3186,-31,45,13,
911,7,28,2023,12,52,31,616,2299,1158,3187,-35,50,13,
912,7,28,2023,12,52,31,626,2290,1155,3192,-34,47,18,
913,7,28,2023,12,52,31,636,2299,1160,3183,-36,48,17,
914,7,28,2023,12,52,31,646,2306,1149,3186,-41,56,17,
915,7,28,2023,12,52,31,656,2301,1149,3182,-45,64,17,
916,7,28,2023,12,52,31,666,2293,1142,3182,-51,76,13,
917,7,28,2023,12,52,31,676,2284,1149,3194,-50,85,14,
918,7,28,2023,12,52,31,686,2283,1147,3205,-48,86,14,
919,7,28,2023,12,52,31,696,2283,1140,3200,-49,86,12,
920,7,28,2023,12,52,31,706,2286,1137,3216,-47,84,12,
921,7,28,2023,12,52,31,716,2284,1133,3204,-44,81,9,
922,7,28,2023,12,52,31,726,2293,1138,3201,-40,80,6,
923,7,28,2023,12,52,31,736,2281,1140,3204,-39,80,3,
924,7,28,2023,12,52,31,746,2273,1151,3208,-40,78,1,
925,7,28,2023,12,52,31,756,2285,1144,3224,-43,75,4,
926,7,28,2023,12,52,31,766,2277,1143,3219,-45,73,7,
927,7,28,2023,12,52,31,776,2281,1144,3213,-44,73,8,
928,7,28,2023,12,52,31,786,2277,1128,3207,-48,72,9,
929,7,28,2023,12,52,31,796,2257,1133,3206,-45,69,3,
930,7,28,2023,12,52,31,806,2234,1158,3215,-44,64,6,
931,7,28,2023,12,52,31,816,2258,1141,3220,-47,60,12,
932,7,28,2023,12,52,31,826,2246,1141,3219,-43,50,13,
933,7,28,2023,12,52,31,836,2251,1139,3234,-40,46,16,
934,7,28,2023,12,52,31,846,2276,1109,3232,-35,38,17,
935,7,28,2023,12,52,31,856,2280,1105,3222,-22,34,6,
936,7,28,2023,12,52,31,876,2264,1129,3227,-9,26,-3,
937,7,28,2023,12,52,31,886,2265,1135,3225,-8,22,-5,
938,7,28,2023,12,52,31,896,2253,1141,3222,-7,19,-6,
939,7,28,2023,12,52,31,906,2262,1134,3217,-11,22,-4,
940,7,28,2023,12,52,31,916,2272,1140,3227,-12,22,0,
941,7,28,2023,12,52,31,926,2253,1138,3223,-12,19,0,
942,7,28,2023,12,52,31,936,2246,1132,3221,-13,15,2,
943,7,28,2023,12,52,31,946,2253,1134,3223,-11,12,3,
944,7,28,2023,12,52,31,956,2250,1138,3229,-14,6,3,
945,7,28,2023,12,52,31,966,2264,1133,3224,-9,3,6,
946,7,28,2023,12,52,31,976,2270,1118,3228,-3,-2,6,
947,7,28,2023,12,52,31,986,2264,1127,3231,1,-5,0,
948,7,28,2023,12,52,31,996,2261,1128,3226,3,-4,0,
949,7,28,2023,12,52,32,6,2255,1126,3222,7,-4,-3,
950,7,28,2023,12,52,32,16,2258,1124,3221,7,-4,-4,
951,7,28,2023,12,52,32,26,2252,1133,3227,8,-1,-5,
952,7,28,2023,12,52,32,36,2260,1133,3225,9,-1,-5,
953,7,28,2023,12,52,32,46,2259,1133,3228,8,-2,-5,
954,7,28,2023,12,52,32,56,2252,1130,3221,4,-2,-5,
955,7,28,2023,12,52,32,66,2254,1145,3224,4,-3,-2,
956,7,28,2023,12,52,32,76,2246,1142,3226,3,-4,0,
957,7,28,2023,12,52,32,86,2256,1130,3235,4,-5,2,
958,7,28,2023,12,52,32,96,2253,1134,3226,8,-9,1,
959,7,28,2023,12,52,32,106,2263,1133,3224,11,-14,1,
960,7,28,2023,12,52,32,116,2254,1132,3223,14,-18,-2,
961,7,28,2023,12,52,32,126,2259,1126,3222,12,-21,-3,
962,7,28,2023,12,52,32,136,2256,1148,3225,14,-18,-4,
963,7,28,2023,12,52,32,146,2265,1129,3226,13,-15,-4,
964,7,28,2023,12,52,32,156,2255,1141,3219,13,-16,-9,
965,7,28,2023,12,52,32,166,2268,1143,3219,9,-15,-5,
966,7,28,2023,12,52,32,176,2265,1137,3222,8,-9,-3,
967,7,28,2023,12,52,32,186,2263,1129,3219,8,-6,-3,
968,7,28,2023,12,52,32,196,2257,1142,3218,10,-3,-3,
969,7,28,2023,12,52,32,206,2265,1134,3227,10,-5,-5,
970,7,28,2023,12,52,32,216,2266,1139,3216,7,-4,-7,
971,7,28,2023,12,52,32,226,2258,1151,3219,6,0,-4,
972,7,28,2023,12,52,32,236,2261,1133,3216,3,3,-5,
973,7,28,2023,12,52,32,246,2259,1155,3219,1,3,-7,
974,7,28,2023,12,52,32,256,2256,1170,3221,1,1,-1,
975,7,28,2023,12,52,32,266,2261,1149,3215,-4,6,2,
976,7,28,2023,12,52,32,276,2259,1148,3219,-8,6,4,
977,7,28,2023,12,52,32,286,2255,1146,3222,-11,6,6,
978,7,28,2023,12,52,32,296,2261,1141,3222,-13,8,8,
979,7,28,2023,12,52,32,306,2257,1137,3230,-13,7,7,
980,7,28,2023,12,52,32,316,2257,1137,3220,-13,6,9,
981,7,28,2023,12,52,32,326,2256,1133,3232,-10,0,8,
982,7,28,2023,12,52,32,336,2252,1136,3231,-10,-1,6,
983,7,28,2023,12,52,32,346,2259,1134,3217,-10,1,4,
984,7,28,2023,12,52,32,356,2256,1141,3232,-7,-1,3,
985,7,28,2023,12,52,32,366,2254,1139,3230,-5,-6,2,
986,7,28,2023,12,52,32,376,2255,1138,3231,-4,-12,2,
987,7,28,2023,12,52,32,386,2261,1137,3224,-3,-11,5,
988,7,28,2023,12,52,32,396,2260,1139,3224,-2,-10,3,
989,7,28,2023,12,52,32,406,2259,1142,3210,-2,-13,5,
990,7,28,2023,12,52,32,416,2259,1140,3220,-4,-9,3,
991,7,28,2023,12,52,32,426,2256,1126,3225,-5,-5,2,
992,7,28,2023,12,52,32,436,2251,1138,3215,-4,-6,3,
993,7,28,2023,12,52,32,446,2250,1144,3218,-3,-2,2,
994,7,28,2023,12,52,32,456,2256,1144,3222,-7,-1,3,
995,7,28,2023,12,52,32,466,2253,1143,3220,-4,-5,6,
996,7,28,2023,12,52,32,476,2262,1143,3234,-3,-7,5,
997,7,28,2023,12,52,32,486,2260,1136,3227,-4,-9,10,
998,7,28,2023,12,52,32,496,2263,1133,3226,-1,-10,7,
999,7,28,2023,12,52,32,506,2263,1128,3233,-3,-10,4,
1000,7,28,2023,12,52,32,516,2256,1140,3225,0,-12,4,
1001,7,28,2023,12,52,32,526,2260,1142,3224,-2,-12,4,
1002,7,28,2023,12,52,32,536,2259,1139,3216,-3,-12,2,
1003,7,28,2023,12,52,32,546,2257,1142,3216,-4,-6,3,
1004,7,28,2023,12,52,32,556,2254,1149,3219,-5,-5,6,
1005,7,28,2023,12,52,32,566,2255,1148,3217,-8,-4,11,
1006,7,28,2023,12,52,32,576,2252,1143,3227,-11,-3,8,
1007,7,28,2023,12,52,32,586,2256,1132,3229,-9,-2,7,
1008,7,28,2023,12,52,32,596,2248,1131,3230,-8,-7,9,
1009,7,28,2023,12,52,32,606,2256,1129,3226,-3,-9,5,
1010,7,28,2023,12,52,32,616,2254,1141,3222,-3,-11,3,
1011,7,28,2023,12,52,32,626,2256,1130,3224,-3,-10,5,
1012,7,28,2023,12,52,32,636,2266,1137,3219,-6,-6,9,
1013,7,28,2023,12,52,32,646,2274,1137,3223,-9,-3,8,
1014,7,28,2023,12,52,32,656,2241,1145,3223,-8,-2,6,
1015,7,28,2023,12,52,32,666,2252,1134,3230,-10,-4,7,
1016,7,28,2023,12,52,32,676,2253,1132,3238,-9,-8,9,
1017,7,28,2023,12,52,32,686,2260,1138,3230,-6,-13,6,
1018,7,28,2023,12,52,32,696,2259,1142,3231,-7,-15,8,
1019,7,28,2023,12,52,32,706,2259,1137,3225,-7,-13,7,
1020,7,28,2023,12,52,32,716,2260,1132,3226,-4,-15,10,
1021,7,28,2023,12,52,32,736,2266,1129,3217,0,-17,7,
1022,7,28,2023,12,52,32,746,2266,1131,3222,4,-20,10,
1023,7,28,2023,12,52,32,756,2259,1132,3223,2,-22,6,
1024,7,28,2023,12,52,32,766,2257,1133,3223,4,-21,2,
1025,7,28,2023,12,52,32,776,2263,1140,3221,0,-17,2,
1026,7,28,2023,12,52,32,786,2260,1140,3223,2,-19,4,
1027,7,28,2023,12,52,32,796,2252,1151,3226,3,-21,4,
1028,7,28,2023,12,52,32,806,2256,1134,3226,2,-22,8,
1029,7,28,2023,12,52,32,816,2256,1135,3218,0,-22,5,
1030,7,28,2023,12,52,32,826,2267,1132,3218,0,-20,4,
1031,7,28,2023,12,52,32,836,2264,1132,3220,3,-25,11,
1032,7,28,2023,12,52,32,846,2263,1139,3220,2,-26,9,
1033,7,28,2023,12,52,32,856,2265,1138,3218,5,-23,5,
1034,7,28,2023,12,52,32,866,2269,1138,3219,4,-20,7,
1035,7,28,2023,12,52,32,876,2264,1134,3219,2,-19,9,
1036,7,28,2023,12,52,32,886,2257,1149,3217,0,-15,9,
1037,7,28,2023,12,52,32,896,2261,1142,3220,-3,-13,11,
1038,7,28,2023,12,52,32,906,2263,1137,3222,-10,-13,13,
1039,7,28,2023,12,52,32,916,2260,1138,3213,-9,-11,11,
1040,7,28,2023,12,52,32,926,2262,1124,3219,-6,-7,12,
1041,7,28,2023,12,52,32,936,2267,1134,3226,-4,-11,12,
1042,7,28,2023,12,52,32,946,2260,1136,3221,-3,-14,12,
1043,7,28,2023,12,52,32,956,2255,1132,3214,-1,-17,9,
1044,7,28,2023,12,52,32,966,2261,1131,3223,0,-13,5,
1045,7,28,2023,12,52,32,976,2261,1136,3218,-3,-14,5,
1046,7,28,2023,12,52,32,986,2266,1137,3221,-3,-19,9,
1047,7,28,2023,12,52,32,996,2262,1131,3216,-1,-13,9,
1048,7,28,2023,12,52,33,6,2267,1133,3213,-2,-16,7,
1049,7,28,2023,12,52,33,16,2257,1141,3213,-4,-16,8,
1050,7,28,2023,12,52,33,26,2266,1138,3222,0,-13,8,
1051,7,28,2023,12,52,33,36,2263,1140,3223,1,-18,10,
1052,7,28,2023,12,52,33,46,2268,1135,3223,-3,-15,7,
1053,7,28,2023,12,52,33,56,2261,1136,3220,-4,-19,8,
1054,7,28,2023,12,52,33,66,2264,1133,3213,-1,-15,10,
1055,7,28,2023,12,52,33,76,2267,1141,3211,-2,-14,8,
1056,7,28,2023,12,52,33,86,2264,1140,3214,-4,-14,7,
1057,7,28,2023,12,52,33,96,2272,1136,3217,-7,-13,9,
1058,7,28,2023,12,52,33,106,2261,1141,3219,-8,-10,13,
1059,7,28,2023,12,52,33,116,2259,1136,3220,-6,-8,11,
1060,7,28,2023,12,52,33,126,2259,1136,3220,-6,-8,11,
1061,7,28,2023,12,52,33,136,2257,1132,3221,-4,-12,9,
1062,7,28,2023,12,52,33,146,2259,1130,3219,-6,-14,11,
1063,7,28,2023,12,52,33,156,2266,1130,3223,-4,-14,10,
1064,7,28,2023,12,52,33,166,2273,1131,3224,-4,-17,8,
1065,7,28,2023,12,52,33,176,2270,1127,3219,-1,-15,8,
1066,7,28,2023,12,52,33,186,2264,1140,3213,1,-17,4,
1067,7,28,2023,12,52,33,196,2264,1140,3213,1,-17,4,
1068,7,28,2023,12,52,33,206,2263,1139,3218,-2,-14,5,
1069,7,28,2023,12,52,33,216,2259,1134,3218,0,-16,7,
1070,7,28,2023,12,52,33,226,2270,1131,3222,-2,-19,6,
1071,7,28,2023,12,52,33,236,2271,1131,3217,-1,-19,6,
1072,7,28,2023,12,52,33,246,2264,1134,3220,-2,-17,8,
1073,7,28,2023,12,52,33,256,2264,1134,3230,-1,-22,10,
1074,7,28,2023,12,52,33,266,2266,1141,3218,4,-22,9,
1075,7,28,2023,12,52,33,276,2271,1136,3213,3,-23,8,
1076,7,28,2023,12,52,33,286,2262,1134,3217,2,-26,7,
1077,7,28,2023,12,52,33,296,2269,1122,3225,8,-25,7,
1078,7,28,2023,12,52,33,306,2267,1136,3217,9,-27,4,
1079,7,28,2023,12,52,33,316,2268,1133,3217,6,-29,4,
1080,7,28,2023,12,52,33,326,2269,1134,3212,9,-28,6,
1081,7,28,2023,12,52,33,336,2275,1134,3222,7,-29,2,
1082,7,28,2023,12,52,33,346,2276,1135,3217,8,-29,5,
1083,7,28,2023,12,52,33,356,2274,1135,3218,6,-26,6,
1084,7,28,2023,12,52,33,366,2270,1132,3216,7,-29,5,
1085,7,28,2023,12,52,33,376,2270,1137,3212,6,-28,6,
1086,7,28,2023,12,52,33,386,2275,1133,3218,5,-30,7,
1087,7,28,2023,12,52,33,396,2276,1138,3219,8,-33,7,
1088,7,28,2023,12,52,33,406,2274,1129,3211,7,-32,8,
1089,7,28,2023,12,52,33,416,2283,1133,3208,5,-30,5,
1090,7,28,2023,12,52,33,426,2281,1138,3208,3,-30,7,
1091,7,28,2023,12,52,33,436,2275,1138,3204,4,-31,7,
1092,7,28,2023,12,52,33,446,2276,1139,3213,6,-28,7,
1093,7,28,2023,12,52,33,456,2280,1137,3211,3,-23,8,
1094,7,28,2023,12,52,33,466,2270,1147,3217,0,-24,8,
1095,7,28,2023,12,52,33,476,2276,1132,3211,3,-26,8,
1096,7,28,2023,12,52,33,486,2279,1135,3218,3,-28,7,
1097,7,28,2023,12,52,33,496,2273,1143,3212,3,-32,5,
1098,7,28,2023,12,52,33,506,2286,1133,3212,5,-34,3,
1099,7,28,2023,12,52,33,516,2289,1129,3208,5,-32,5,
1100,7,28,2023,12,52,33,526,2276,1135,3199,9,-30,6,
1101,7,28,2023,12,52,33,536,2283,1133,3206,3,-26,5,
1102,7,28,2023,12,52,33,546,2285,1138,3196,2,-21,6,
1103,7,28,2023,12,52,33,556,2284,1137,3202,-2,-16,6,
1104,7,28,2023,12,52,33,566,2282,1140,3202,-4,-13,5,
1105,7,28,2023,12,52,33,576,2277,1143,3214,-5,-10,9,
1106,7,28,2023,12,52,33,596,2282,1126,3209,-4,-12,8,
1107,7,28,2023,12,52,33,606,2278,1145,3202,2,-18,8,
1108,7,28,2023,12,52,33,616,2280,1129,3208,1,-20,8,
1109,7,28,2023,12,52,33,626,2286,1137,3213,3,-20,4,
1110,7,28,2023,12,52,33,636,2289,1134,3209,6,-21,8,
1111,7,28,2023,12,52,33,646,2281,1127,3201,2,-20,7,
1112,7,28,2023,12,52,33,656,2282,1133,3209,4,-22,4,
1113,7,28,2023,12,52,33,666,2280,1141,3208,5,-19,4,
1114,7,28,2023,12,52,33,676,2287,1136,3202,1,-14,3,
1115,7,28,2023,12,52,33,686,2286,1142,3202,-4,-12,3,
1116,7,28,2023,12,52,33,696,2286,1142,3208,-4,-13,6,
1117,7,28,2023,12,52,33,706,2283,1147,3207,-3,-14,9,
1118,7,28,2023,12,52,33,716,2285,1129,3204,-8,-13,11,
1119,7,28,2023,12,52,33,726,2276,1142,3209,-4,-11,8,
1120,7,28,2023,12,52,33,736,2279,1135,3203,-7,-10,13,
1121,7,28,2023,12,52,33,746,2288,1129,3205,-8,-10,9,
1122,7,28,2023,12,52,33,756,2279,1130,3208,-7,-6,8,
1123,7,28,2023,12,52,33,766,2282,1141,3205,-7,-7,6,
1124,7,28,2023,12,52,33,776,2291,1136,3203,-8,-3,8,
1125,7,28,2023,12,52,33,786,2282,1132,3200,-6,-3,5,
1126,7,28,2023,12,52,33,796,2278,1134,3212,-7,-1,4,
1127,7,28,2023,12,52,33,806,2284,1133,3219,-10,0,5,
1128,7,28,2023,12,52,33,816,2278,1137,3208,-10,3,6,
1129,7,28,2023,12,52,33,826,2277,1135,3213,-5,-6,9,
1130,7,28,2023,12,52,33,836,2276,1132,3212,0,-12,8,
1131,7,28,2023,12,52,33,846,2285,1135,3211,-5,-10,10,
1132,7,28,2023,12,52,33,856,2284,1139,3201,-4,-8,7,
1133,7,28,2023,12,52,33,866,2284,1139,3203,-4,-7,6,
1134,7,28,2023,12,52,33,876,2279,1137,3212,-5,-7,5,
1135,7,28,2023,12,52,33,886,2285,1136,3207,-5,-5,8,
1136,7,28,2023,12,52,33,896,2286,1135,3211,-10,1,5,
1137,7,28,2023,12,52,33,906,2279,1129,3208,-10,-2,3,
1138,7,28,2023,12,52,33,916,2280,1130,3206,-7,0,7,
1139,7,28,2023,12,52,33,926,2286,1131,3207,-11,2,7,
1140,7,28,2023,12,52,33,936,2285,1133,3203,-12,5,3,
1141,7,28,2023,12,52,33,946,2285,1130,3208,-10,7,5,
1142,7,28,2023,12,52,33,956,2282,1127,3209,-8,5,6,
1143,7,28,2023,12,52,33,966,2283,1133,3209,-8,3,4,
1144,7,28,2023,12,52,33,976,2279,1128,3203,-9,2,3,
1145,7,28,2023,12,52,33,986,2279,1135,3204,-9,7,3,
1146,7,28,2023,12,52,33,996,2286,1135,3208,-10,7,1,
1147,7,28,2023,12,52,34,6,2286,1135,3202,-11,10,6,
1148,7,28,2023,12,52,34,16,2284,1133,3211,-12,13,8,
1149,7,28,2023,12,52,34,26,2282,1129,3216,-13,13,7,
1150,7,28,2023,12,52,34,36,2278,1127,3210,-10,10,3,
1151,7,28,2023,12,52,34,46,2273,1128,3217,-7,11,3,
1152,7,28,2023,12,52,34,56,2277,1124,3211,-6,9,1,
1153,7,28,2023,12,52,34,66,2284,1118,3216,-7,9,2,
1154,7,28,2023,12,52,34,76,2281,1131,3206,-6,4,3,
1155,7,28,2023,12,52,34,86,2276,1136,3206,-6,4,5,
1156,7,28,2023,12,52,34,96,2276,1134,3211,-9,7,2,
1157,7,28,2023,12,52,34,106,2277,1136,3214,-10,8,3,
1158,7,28,2023,12,52,34,116,2274,1124,3219,-9,6,5,
1159,7,28,2023,12,52,34,126,2277,1124,3215,-8,3,3,
1160,7,28,2023,12,52,34,136,2279,1130,3217,-7,0,4,
1161,7,28,2023,12,52,34,146,2271,1132,3218,-7,-5,5,
1162,7,28,2023,12,52,34,156,2272,1127,3212,-7,-5,2,
1163,7,28,2023,12,52,34,166,2280,1132,3213,-1,-2,1,
1164,7,28,2023,12,52,34,176,2281,1126,3207,2,-4,3,
1165,7,28,2023,12,52,34,186,2282,1132,3213,-2,-4,5,
1166,7,28,2023,12,52,34,196,2277,1127,3219,-2,-3,3,
1167,7,28,2023,12,52,34,206,2285,1131,3214,-2,-6,3,
1168,7,28,2023,12,52,34,216,2277,1131,3212,-4,-5,4,
1169,7,28,2023,12,52,34,226,2270,1129,3215,-4,-2,6,
1170,7,28,2023,12,52,34,236,2277,1129,3215,-7,0,6,
1171,7,28,2023,12,52,34,246,2278,1129,3216,-7,-2,3,
1172,7,28,2023,12,52,34,256,2274,1128,3214,-4,-1,6,
1173,7,28,2023,12,52,34,266,2276,1123,3218,-5,-2,3,
1174,7,28,2023,12,52,34,276,2283,1128,3214,-5,0,2,
1175,7,28,2023,12,52,34,286,2280,1127,3209,-2,-4,3,
1176,7,28,2023,12,52,34,296,2279,1129,3206,-4,-4,3,
1177,7,28,2023,12,52,34,306,2274,1127,3207,-4,-4,2,
1178,7,28,2023,12,52,34,316,2271,1128,3206,-6,0,7,
1179,7,28,2023,12,52,34,326,2273,1129,3218,-4,2,3,
1180,7,28,2023,12,52,34,336,2274,1129,3212,-3,0,2,
1181,7,28,2023,12,52,34,346,2274,1128,3211,-1,0,3,
1182,7,28,2023,12,52,34,356,2280,1128,3220,-3,0,3,
1183,7,28,2023,12,52,34,366,2274,1130,3217,-4,-3,1,
1184,7,28,2023,12,52,34,376,2277,1134,3217,-2,-4,4,
1185,7,28,2023,12,52,34,386,2278,1135,3215,-5,-2,3,
1186,7,28,2023,12,52,34,396,2278,1129,3217,0,-1,4,
1187,7,28,2023,12,52,34,406,2275,1132,3222,0,-5,3,
1188,7,28,2023,12,52,34,416,2280,1124,3221,-2,-6,4,
1189,7,28,2023,12,52,34,426,2278,1125,3218,-3,-5,5,
1190,7,28,2023,12,52,34,436,2276,1130,3218,-1,-5,3,
1191,7,28,2023,12,52,34,456,2272,1125,3218,0,-10,3,
1192,7,28,2023,12,52,34,466,2275,1123,3216,0,-9,3,
1193,7,28,2023,12,52,34,476,2270,1130,3218,2,-9,1,
1194,7,28,2023,12,52,34,486,2270,1135,3220,-1,-9,0,
1195,7,28,2023,12,52,34,496,2274,1127,3210,-4,-8,4,
1196,7,28,2023,12,52,34,506,2276,1130,3211,-3,-6,4,
1197,7,28,2023,12,52,34,516,2279,1130,3207,-2,-5,5,
1198,7,28,2023,12,52,34,526,2278,1135,3210,-3,-4,6,
1199,7,28,2023,12,52,34,536,2278,1127,3218,-5,-1,5,
1200,7,28,2023,12,52,34,546,2274,1128,3217,-7,-3,6,
1201,7,28,2023,12,52,34,556,2273,1123,3215,-4,-5,6,
1202,7,28,2023,12,52,34,566,2274,1132,3218,-3,-4,5,
1203,7,28,2023,12,52,34,576,2280,1128,3219,-2,-4,6,
1204,7,28,2023,12,52,34,586,2276,1130,3213,-2,-7,5,
1205,7,28,2023,12,52,34,596,2269,1135,3217,-3,-3,4,
1206,7,28,2023,12,52,34,606,2273,1127,3218,-7,-4,5,
1207,7,28,2023,12,52,34,616,2284,1130,3212,-6,-6,4,
1208,7,28,2023,12,52,34,626,2270,1131,3213,-4,-4,3,
1209,7,28,2023,12,52,34,636,2273,1124,3218,-7,-2,6,
1210,7,28,2023,12,52,34,646,2275,1128,3213,-6,-3,3,
1211,7,28,2023,12,52,34,656,2268,1131,3216,-6,-4,3,
1212,7,28,2023,12,52,34,666,2273,1128,3213,-5,-4,2,
1213,7,28,2023,12,52,34,676,2274,1128,3213,-4,-3,4,
1214,7,28,2023,12,52,34,686,2272,1123,3215,-3,-5,3,
1215,7,28,2023,12,52,34,696,2277,1127,3214,-5,-4,2,
1216,7,28,2023,12,52,34,706,2280,1135,3215,-4,-5,3,
1217,7,28,2023,12,52,34,716,2274,1125,3215,-5,-3,3,
1218,7,28,2023,12,52,34,726,2269,1127,3217,-5,-1,1,
1219,7,28,2023,12,52,34,736,2274,1131,3214,0,0,1,
1220,7,28,2023,12,52,34,746,2268,1126,3216,1,-4,3,
1221,7,28,2023,12,52,34,756,2270,1129,3219,-2,-2,1,
1222,7,28,2023,12,52,34,766,2277,1129,3218,-6,1,1,
1223,7,28,2023,12,52,34,776,2276,1129,3212,-5,1,-1,
1224,7,28,2023,12,52,34,786,2276,1132,3213,-4,4,0,
1225,7,28,2023,12,52,34,796,2275,1133,3214,-7,2,1,
1226,7,28,2023,12,52,34,806,2268,1127,3213,-11,4,5,
1227,7,28,2023,12,52,34,816,2273,1127,3224,-8,7,2,
1228,7,28,2023,12,52,34,826,2271,1125,3227,-10,5,2,
1229,7,28,2023,12,52,34,836,2270,1121,3213,-8,2,4,
1230,7,28,2023,12,52,34,846,2277,1140,3220,-4,2,1,
1231,7,28,2023,12,52,34,856,2276,1128,3211,-5,2,1,
1232,7,28,2023,12,52,34,866,2279,1136,3214,-4,3,0,
1233,7,28,2023,12,52,34,876,2280,1133,3210,-6,5,1,
1234,7,28,2023,12,52,34,886,2275,1128,3215,-13,9,3,
1235,7,28,2023,12,52,34,896,2263,1119,3221,-17,13,2,
1236,7,28,2023,12,52,34,906,2275,1127,3218,-12,11,2,
1237,7,28,2023,12,52,34,916,2268,1121,3218,-9,13,4,
1238,7,28,2023,12,52,34,926,2258,1142,3216,-13,11,0,
1239,7,28,2023,12,52,34,936,2260,1131,3223,-11,8,4,
1240,7,28,2023,12,52,34,946,2254,1136,3220,-13,4,8,
1241,7,28,2023,12,52,34,956,2250,1121,3232,-11,1,11,
1242,7,28,2023,12,52,34,966,2266,1103,3235,-5,-7,10,
1243,7,28,2023,12,52,34,976,2271,1124,3230,-1,-14,-1,
1244,7,28,2023,12,52,34,986,2278,1112,3225,7,-19,2,
1245,7,28,2023,12,52,34,996,2274,1121,3218,8,-18,1,
1246,7,28,2023,12,52,35,6,2274,1135,3209,8,-14,-3,
1247,7,28,2023,12,52,35,16,2271,1135,3222,6,-14,-2,
1248,7,28,2023,12,52,35,26,2270,1128,3233,4,-14,0,
1249,7,28,2023,12,52,35,36,2273,1118,3237,7,-21,-2,
1250,7,28,2023,12,52,35,46,2276,1128,3227,11,-32,-4,
1251,7,28,2023,12,52,35,56,2276,1130,3204,15,-37,-9,
1252,7,28,2023,12,52,35,66,2281,1128,3206,11,-30,-8,
1253,7,28,2023,12,52,35,76,2278,1120,3207,-10,-8,8,
1254,7,28,2023,12,52,35,86,2265,1114,3199,1,-8,-3,
1255,7,28,2023,12,52,35,96,2264,1114,3211,10,-5,-11,
1256,7,28,2023,12,52,35,106,2245,1147,3219,9,-3,-11,
1257,7,28,2023,12,52,35,116,2257,1137,3228,9,-7,-6,
1258,7,28,2023,12,52,35,126,2278,1110,3225,12,-14,-3,
1259,7,28,2023,12,52,35,136,2276,1114,3220,18,-21,-10,
1260,7,28,2023,12,52,35,146,2288,1113,3206,28,-26,-18,
1261,7,28,2023,12,52,35,156,2281,1126,3206,31,-22,-21,
1262,7,28,2023,12,52,35,166,2271,1143,3210,28,-14,-25,
1263,7,28,2023,12,52,35,176,2267,1155,3208,21,-12,-18,
1264,7,28,2023,12,52,35,186,2276,1133,3213,12,-7,-11,
1265,7,28,2023,12,52,35,196,2273,1120,3218,14,0,-12,
1266,7,28,2023,12,52,35,206,2270,1148,3201,11,2,-11,
1267,7,28,2023,12,52,35,216,2271,1140,3198,8,6,-7,
1268,7,28,2023,12,52,35,226,2274,1126,3200,5,11,-10,
1269,7,28,2023,12,52,35,236,2240,1111,3212,7,18,-13,
1270,7,28,2023,12,52,35,246,2231,1131,3250,18,6,-9,
1271,7,28,2023,12,52,35,256,2259,1098,3256,29,-14,-11,
1272,7,28,2023,12,52,35,266,2263,1080,3243,49,-36,-26,
1273,7,28,2023,12,52,35,276,2269,1147,3207,68,-47,-42,
1274,7,28,2023,12,52,35,286,2278,1165,3187,63,-44,-41,
1275,7,28,2023,12,52,35,296,2273,1147,3189,55,-34,-39,
1276,7,28,2023,12,52,35,316,2279,1124,3219,57,-21,-46,
1277,7,28,2023,12,52,35,326,2277,1146,3217,70,-26,-58,
1278,7,28,2023,12,52,35,336,2281,1146,3215,77,-32,-62,
1279,7,28,2023,12,52,35,346,2277,1174,3214,73,-36,-67,
1280,7,28,2023,12,52,35,356,2271,1178,3203,68,-36,-59,
1281,7,28,2023,12,52,35,366,2276,1176,3210,64,-36,-50,
1282,7,28,2023,12,52,35,376,2274,1139,3212,62,-34,-46,
1283,7,28,2023,12,52,35,386,2274,1144,3215,65,-32,-52,
1284,7,28,2023,12,52,35,396,2276,1157,3216,66,-34,-52,
1285,7,28,2023,12,52,35,406,2271,1152,3203,72,-36,-60,
1286,7,28,2023,12,52,35,416,2279,1179,3209,78,-35,-60,
1287,7,28,2023,12,52,35,426,2280,1198,3196,71,-34,-59,
1288,7,28,2023,12,52,35,436,2269,1201,3186,56,-23,-51,
1289,7,28,2023,12,52,35,446,2262,1184,3193,45,-11,-43,
1290,7,28,2023,12,52,35,456,2263,1182,3202,38,-9,-35,
1291,7,28,2023,12,52,35,466,2270,1185,3207,35,-8,-30,
1292,7,28,2023,12,52,35,476,2274,1177,3215,38,-14,-26,
1293,7,28,2023,12,52,35,486,2271,1190,3206,37,-18,-29,
1294,7,28,2023,12,52,35,496,2277,1202,3202,33,-18,-25,
1295,7,28,2023,12,52,35,506,2275,1190,3197,22,-14,-16,
1296,7,28,2023,12,52,35,516,2269,1194,3194,16,-12,-10,
1297,7,28,2023,12,52,35,526,2272,1184,3193,11,-5,-6,
1298,7,28,2023,12,52,35,536,2258,1167,3199,8,-3,-2,
1299,7,28,2023,12,52,35,546,2265,1187,3198,9,-6,-6,
1300,7,28,2023,12,52,35,556,2266,1174,3200,11,-5,-3,
1301,7,28,2023,12,52,35,566,2268,1174,3202,14,-8,-6,
1302,7,28,2023,12,52,35,576,2260,1191,3200,15,-10,-6,
1303,7,28,2023,12,52,35,586,2263,1200,3201,17,-13,-8,
1304,7,28,2023,12,52,35,596,2271,1187,3202,10,-16,-2,
1305,7,28,2023,12,52,35,606,2280,1193,3198,5,-17,1,
1306,7,28,2023,12,52,35,616,2272,1191,3190,1,-13,2,
1307,7,28,2023,12,52,35,626,2274,1187,3188,-1,-10,3,
1308,7,28,2023,12,52,35,636,2263,1196,3194,-3,-9,8,
1309,7,28,2023,12,52,35,646,2267,1187,3209,-10,-7,14,
1310,7,28,2023,12,52,35,656,2263,1183,3199,-12,-4,17,
1311,7,28,2023,12,52,35,666,2269,1186,3194,-11,-10,16,
1312,7,28,2023,12,52,35,676,2262,1182,3198,-12,-9,17,
1313,7,28,2023,12,52,35,686,2275,1168,3203,-12,-4,13,
1314,7,28,2023,12,52,35,696,2289,1174,3193,-8,-9,10,
1315,7,28,2023,12,52,35,706,2281,1180,3192,-7,-9,8,
1316,7,28,2023,12,52,35,716,2279,1179,3191,-11,-4,7,
1317,7,28,2023,12,52,35,726,2269,1189,3204,-14,2,13,
1318,7,28,2023,12,52,35,736,2265,1195,3201,-22,7,13,
1319,7,28,2023,12,52,35,746,2272,1165,3203,-25,8,18,
1320,7,28,2023,12,52,35,756,2264,1174,3204,-22,3,17,
1321,7,28,2023,12,52,35,766,2266,1163,3214,-19,-2,18,
1322,7,28,2023,12,52,35,776,2269,1157,3213,-12,-6,13,
1323,7,28,2023,12,52,35,786,2262,1182,3208,-4,-16,6,
1324,7,28,2023,12,52,35,796,2279,1183,3208,-2,-21,6,
1325,7,28,2023,12,52,35,806,2278,1192,3198,-2,-24,10,
1326,7,28,2023,12,52,35,816,2278,1195,3200,-9,-21,14,
1327,7,28,2023,12,52,35,826,2281,1194,3196,-17,-16,17,
1328,7,28,2023,12,52,35,836,2279,1202,3192,-22,-14,23,
1329,7,28,2023,12,52,35,846,2274,1199,3194,-32,-8,34,
1330,7,28,2023,12,52,35,856,2267,1192,3187,-41,-1,40,
1331,7,28,2023,12,52,35,866,2265,1188,3196,-51,5,50,
1332,7,28,2023,12,52,35,876,2260,1160,3213,-60,9,58,
1333,7,28,2023,12,52,35,886,2279,1148,3206,-56,4,54,
1334,7,28,2023,12,52,35,896,2277,1174,3211,-47,0,52,
1335,7,28,2023,12,52,35,906,2276,1156,3210,-49,0,55,
1336,7,28,2023,12,52,35,916,2278,1164,3207,-48,1,49,
1337,7,28,2023,12,52,35,926,2280,1171,3202,-47,-5,53,
1338,7,28,2023,12,52,35,936,2279,1160,3204,-52,-2,52,
1339,7,28,2023,12,52,35,946,2287,1165,3205,-57,-1,49,
1340,7,28,2023,12,52,35,956,2278,1174,3237,-69,-5,42,
1341,7,28,2023,12,52,35,966,2279,1164,3254,-88,-27,31,
1342,7,28,2023,12,52,35,976,2320,1111,3216,-103,-52,17,
1343,7,28,2023,12,52,35,986,2351,1089,3146,-116,-39,1,
1344,7,28,2023,12,52,35,996,2356,1060,3149,-141,10,-1,
1345,7,28,2023,12,52,36,6,2285,1177,3129,-133,63,-12,
1346,7,28,2023,12,52,36,16,2264,1180,3174,-135,104,-6,
1347,7,28,2023,12,52,36,26,2260,1179,3212,-139,123,7,
1348,7,28,2023,12,52,36,36,2243,1121,3243,-143,123,15,
1349,7,28,2023,12,52,36,46,2191,1190,3230,-139,96,20,
1350,7,28,2023,12,52,36,56,2238,1162,3216,-124,73,27,
1351,7,28,2023,12,52,36,66,2200,1155,3208,-122,64,32,
1352,7,28,2023,12,52,36,76,2203,1169,3207,-113,52,41,
1353,7,28,2023,12,52,36,86,2254,1105,3220,-109,51,48,
1354,7,28,2023,12,52,36,96,2285,1078,3220,-91,54,39,
1355,7,28,2023,12,52,36,106,2284,1080,3209,-72,60,24,
1356,7,28,2023,12,52,36,116,2239,1102,3198,-55,69,14,
1357,7,28,2023,12,52,36,126,2174,1164,3215,-47,68,16,
1358,7,28,2023,12,52,36,136,2194,1093,3273,-39,54,27,
1359,7,28,2023,12,52,36,146,2203,1013,3277,-2,30,18,
1360,7,28,2023,12,52,36,156,2213,1090,3285,44,-13,5,
1361,7,28,2023,12,52,36,176,2275,1153,3220,59,-44,9,
1362,7,28,2023,12,52,36,186,2264,1135,3205,56,-43,22,
1363,7,28,2023,12,52,36,196,2185,1084,3260,52,-50,33,
1364,7,28,2023,12,52,36,206,2165,1110,3272,82,-85,24,
1365,7,28,2023,12,52,36,216,2190,1138,3319,117,-143,19,
1366,7,28,2023,12,52,36,226,2294,1088,3314,151,-213,8,
1367,7,28,2023,12,52,36,236,2322,1063,3297,189,-264,-9,
1368,7,28,2023,12,52,36,246,2304,1146,3254,217,-292,-24,
1369,7,28,2023,12,52,36,256,2309,1181,3189,215,-307,-17,
1370,7,28,2023,12,52,36,266,2316,1135,3156,197,-295,-5,
1371,7,28,2023,12,52,36,276,2304,1190,3158,172,-265,5,
1372,7,28,2023,12,52,36,286,2315,1219,3147,145,-243,22,
1373,7,28,2023,12,52,36,296,2320,1164,3150,109,-212,43,
1374,7,28,2023,12,52,36,306,2305,1165,3139,89,-191,45,
1375,7,28,2023,12,52,36,316,2263,1176,3175,80,-181,40,
1376,7,28,2023,12,52,36,326,2287,1158,3234,79,-194,37,
1377,7,28,2023,12,52,36,336,2336,1108,3216,87,-220,35,
1378,7,28,2023,12,52,36,346,2350,1134,3183,98,-236,20,
1379,7,28,2023,12,52,36,356,2362,1161,3142,98,-227,5,
1380,7,28,2023,12,52,36,366,2366,1158,3119,91,-203,-7,
1381,7,28,2023,12,52,36,376,2354,1192,3106,78,-171,-14,
1382,7,28,2023,12,52,36,386,2356,1189,3126,63,-132,-17,
1383,7,28,2023,12,52,36,396,2347,1174,3150,53,-106,-19,
1384,7,28,2023,12,52,36,406,2350,1151,3168,47,-85,-19,
1385,7,28,2023,12,52,36,416,2360,1134,3172,44,-76,-31,
1386,7,28,2023,12,52,36,426,2359,1151,3181,46,-76,-46,
1387,7,28,2023,12,52,36,436,2359,1151,3158,46,-67,-55,
1388,7,28,2023,12,52,36,446,2372,1149,3147,44,-57,-69,
1389,7,28,2023,12,52,36,456,2376,1202,3110,32,-37,-80,
1390,7,28,2023,12,52,36,466,2365,1236,3082,5,5,-65,
1391,7,28,2023,12,52,36,476,2371,1221,3089,-24,52,-46,
1392,7,28,2023,12,52,36,486,2361,1234,3103,-51,105,-29,
1393,7,28,2023,12,52,36,496,2359,1243,3107,-94,149,-9,
1394,7,28,2023,12,52,36,506,2367,1208,3117,-132,191,-1,
1395,7,28,2023,12,52,36,516,2370,1210,3105,-167,238,8,
1396,7,28,2023,12,52,36,526,2382,1180,3123,-199,283,7,
1397,7,28,2023,12,52,36,536,2410,1143,3118,-228,325,-12,
1398,7,28,2023,12,52,36,546,2373,1158,3110,-244,367,-26,
1399,7,28,2023,12,52,36,556,2347,1132,3101,-261,415,-24,
1400,7,28,2023,12,52,36,566,2272,1055,3228,-262,460,-36,
1401,7,28,2023,12,52,36,576,2249,1060,3327,-224,428,-51,
1402,7,28,2023,12,52,36,586,2257,1046,3319,-172,325,-87,
1403,7,28,2023,12,52,36,596,2318,1098,3206,-103,268,-109,
1404,7,28,2023,12,52,36,606,2327,1123,3144,-60,296,-94,
1405,7,28,2023,12,52,36,616,2332,1142,3199,-45,354,-75,
1406,7,28,2023,12,52,36,626,2292,1238,3279,37,380,-27,
1407,7,28,2023,12,52,36,636,2297,1071,3304,155,369,33,
1408,7,28,2023,12,52,36,646,2347,1013,3271,229,338,-36,
1409,7,28,2023,12,52,36,656,2249,1224,3212,293,317,-137,
1410,7,28,2023,12,52,36,666,2252,1277,3265,318,301,-170,
1411,7,28,2023,12,52,36,676,2331,1142,3236,407,279,-179,
1412,7,28,2023,12,52,36,686,2364,1103,3219,488,292,-244,
1413,7,28,2023,12,52,36,696,2187,1279,3199,521,343,-289,
1414,7,28,2023,12,52,36,706,2168,1238,3259,498,354,-293,
1415,7,28,2023,12,52,36,716,2189,1270,3255,438,393,-253,
1416,7,28,2023,12,52,36,726,2143,1297,3305,364,411,-196,
1417,7,28,2023,12,52,36,736,2046,1307,3338,276,399,-122,
1418,7,28,2023,12,52,36,746,2065,1282,3351,191,351,-42,
1419,7,28,2023,12,52,36,756,2089,1293,3322,159,302,17,
1420,7,28,2023,12,52,36,766,2059,1301,3260,133,259,34,
1421,7,28,2023,12,52,36,776,2008,1288,3265,101,216,43,
1422,7,28,2023,12,52,36,786,2076,1267,3289,73,164,35,
1423,7,28,2023,12,52,36,796,2181,1187,3321,69,131,12,
1424,7,28,2023,12,52,36,806,2193,1187,3287,99,134,-9,
1425,7,28,2023,12,52,36,816,2115,1293,3245,131,141,-43,
1426,7,28,2023,12,52,36,826,2061,1263,3259,120,116,-69,
1427,7,28,2023,12,52,36,836,2039,1211,3240,101,94,-63,
1428,7,28,2023,12,52,36,846,1983,1310,3207,77,68,-29,
1429,7,28,2023,12,52,36,856,1989,1313,3182,25,29,10,
1430,7,28,2023,12,52,36,866,1983,1282,3174,-33,-2,55,
1431,7,28,2023,12,52,36,876,2027,1325,3263,-93,-41,97,
1432,7,28,2023,12,52,36,886,2298,1228,3327,-100,-51,111,
1433,7,28,2023,12,52,36,896,2178,1236,3265,-68,2,99,
1434,7,28,2023,12,52,36,906,2088,1305,3246,-56,4,110,
1435,7,28,2023,12,52,36,916,2150,1244,3252,-61,-17,118,
1436,7,28,2023,12,52,36,926,2088,1262,3228,-53,-26,111,
1437,7,28,2023,12,52,36,936,2031,1244,3202,-66,-46,117,
1438,7,28,2023,12,52,36,946,2050,1229,3233,-91,-72,133,
1439,7,28,2023,12,52,36,956,2059,1254,3241,-102,-86,157,
1440,7,28,2023,12,52,36,966,2032,1225,3199,-139,-122,175,
1441,7,28,2023,12,52,36,976,1959,1211,3142,-200,-162,223,
1442,7,28,2023,12,52,36,986,1905,1221,3170,-271,-230,277,
1443,7,28,2023,12,52,36,996,2010,1182,3238,-328,-296,300,
1444,7,28,2023,12,52,37,6,1762,1146,3211,-341,-355,299,
1445,7,28,2023,12,52,37,16,1967,1028,3378,-338,-423,299,
1446,7,28,2023,12,52,37,36,1863,1528,3339,-352,-409,382,
1447,7,28,2023,12,52,37,46,2044,1467,3255,-449,-293,545,
1448,7,28,2023,12,52,37,56,2379,1246,3258,-532,-225,612,
1449,7,28,2023,12,52,37,66,2427,1056,3439,-527,-223,588,
1450,7,28,2023,12,52,37,76,2297,1197,3356,-429,-244,558,
1451,7,28,2023,12,52,37,86,2395,1084,3415,-387,-373,486,
1452,7,28,2023,12,52,37,96,2411,1037,3454,-323,-509,421,
1453,7,28,2023,12,52,37,106,2458,1099,3472,-273,-652,404,
1454,7,28,2023,12,52,37,116,2324,1002,3537,-229,-841,393,
1455,7,28,2023,12,52,37,126,2111,1237,3681,-177,-1031,405,
1456,7,28,2023,12,52,37,136,2319,1310,3686,-199,-1300,514,
1457,7,28,2023,12,52,37,146,2353,833,3792,-186,-1637,592,
1458,7,28,2023,12,52,37,156,2188,533,4125,86,-2127,539,
1459,7,28,2023,12,52,37,166,2165,641,4392,435,-2768,415,
1460,7,28,2023,12,52,37,176,2126,1251,4542,826,-3505,374,
1461,7,28,2023,12,52,37,186,2255,1250,4603,875,-4365,509,
1462,7,28,2023,12,52,37,196,1975,1437,4857,1076,-5325,700,
1463,7,28,2023,12,52,37,206,1698,1816,4882,1171,-6296,1028,
1464,7,28,2023,12,52,37,216,1855,1893,4515,1170,-7261,1521,
1465,7,28,2023,12,52,37,226,1821,2789,4646,1228,-8146,2079,
1466,7,28,2023,12,52,37,236,1755,1877,4357,591,-9003,2843,
1467,7,28,2023,12,52,37,246,2597,2066,4016,150,-10294,3488,
1468,7,28,2023,12,52,37,256,3376,2172,4663,-286,-11259,3893,
1469,7,28,2023,12,52,37,266,4251,1490,4101,-213,-11307,4055,
1470,7,28,2023,12,52,37,276,6297,1886,4517,156,-11371,4142,
1471,7,28,2023,12,52,37,286,6644,1998,4186,274,-10762,4025,
1472,7,28,2023,12,52,37,296,9247,2795,5260,352,-10178,4068,
1473,7,28,2023,12,52,37,306,7581,3397,4266,194,-8567,4067,
1474,7,28,2023,12,52,37,316,8383,5,2305,-433,-7897,4373,
1475,7,28,2023,12,52,37,326,10684,-989,2023,923,-7354,3866,
1476,7,28,2023,12,52,37,336,17059,983,2427,2879,-5994,3426,
1477,7,28,2023,12,52,37,346,15465,4121,3023,2524,-2540,3046,
1478,7,28,2023,12,52,37,356,10990,732,1972,854,559,2827,
1479,7,28,2023,12,52,37,366,9952,-1256,2121,1629,916,2101,
1480,7,28,2023,12,52,37,376,7700,1332,1736,3786,467,806,
1481,7,28,2023,12,52,37,386,6598,3433,1761,3635,-580,448,
1482,7,28,2023,12,52,37,396,6002,3225,2205,1614,-1448,785,
1483,7,28,2023,12,52,37,406,5436,1730,2856,-97,-1795,1019,
1484,7,28,2023,12,52,37,416,4664,550,3381,-371,-1586,775,
1485,7,28,2023,12,52,37,426,3085,584,3441,239,-930,297,
1486,7,28,2023,12,52,37,436,1204,879,3212,630,-263,118,
1487,7,28,2023,12,52,37,446,-101,677,2904,520,204,308,
1488,7,28,2023,12,52,37,456,-916,191,2687,319,591,589,
1489,7,28,2023,12,52,37,466,-1355,0,2565,373,1025,758,
1490,7,28,2023,12,52,37,476,-1993,163,2428,444,1609,721,
1491,7,28,2023,12,52,37,486,-2871,274,2266,366,2188,616,
1492,7,28,2023,12,52,37,496,-2971,398,2307,321,2650,514,
1493,7,28,2023,12,52,37,506,-2377,653,2385,424,3300,249,
1494,7,28,2023,12,52,37,516,-2719,840,2165,410,4285,-264,
1495,7,28,2023,12,52,37,526,-3596,623,1843,316,5072,-794,
1496,7,28,2023,12,52,37,536,-3613,485,1746,452,5401,-1236,
1497,7,28,2023,12,52,37,546,-2949,737,1765,718,5703,-1700,
1498,7,28,2023,12,52,37,556,-2890,902,1613,772,6268,-2190,
1499,7,28,2023,12,52,37,566,-2907,720,1415,735,6735,-2572,
1500,7,28,2023,12,52,37,576,-2516,533,1277,821,6961,-2927,
1501,7,28,2023,12,52,37,586,-1762,646,1394,957,7128,-3306,
1502,7,28,2023,12,52,37,596,-754,695,1488,1003,7452,-3731,
1503,7,28,2023,12,52,37,606,-347,509,1137,926,7947,-4207,
1504,7,28,2023,12,52,37,616,-9,57,571,853,8058,-4633,
1505,7,28,2023,12,52,37,626,836,-303,100,902,7647,-4940,
1506,7,28,2023,12,52,37,636,2119,-660,-168,993,6988,-5139,
1507,7,28,2023,12,52,37,646,3648,-944,-580,1198,6307,-5168,
1508,7,28,2023,12,52,37,656,4837,-1026,-1349,1459,5545,-4991,
1509,7,28,2023,12,52,37,666,6708,-756,-1980,1586,4326,-4583,
1510,7,28,2023,12,52,37,676,8525,-578,-2774,1537,3018,-4091,
1511,7,28,2023,12,52,37,686,10196,-420,-3345,1456,1652,-3678,
1512,7,28,2023,12,52,37,696,11402,119,-3901,1114,539,-3330,
1513,7,28,2023,12,52,37,706,10751,-683,-4474,574,-191,-2583,
1514,7,28,2023,12,52,37,716,11488,-57,-4498,723,-1163,-1559,
1515,7,28,2023,12,52,37,726,19528,1789,-4312,-161,-1387,-338,
1516,7,28,2023,12,52,37,736,23243,-823,-3845,-1494,815,2011,
1517,7,28,2023,12,52,37,746,4227,3568,1731,-1035,2341,2496,
1518,7,28,2023,12,52,37,756,-4380,-2121,8632,-2135,1619,914,
1519,7,28,2023,12,52,37,766,1774,1268,4891,-595,3058,978,
1520,7,28,2023,12,52,37,776,5821,364,2885,-1318,3039,622,
1521,7,28,2023,12,52,37,786,3361,-819,3543,-986,2282,-192,
1522,7,28,2023,12,52,37,796,2054,-1159,3912,-487,1810,-938,
1523,7,28,2023,12,52,37,806,3011,1433,2775,-273,1696,-1445,
1524,7,28,2023,12,52,37,816,2762,2894,2323,-487,1737,-1388,
1525,7,28,2023,12,52,37,826,2783,2920,2708,-742,2032,-817,
1526,7,28,2023,12,52,37,836,2429,2044,3236,-998,2270,-133,
1527,7,28,2023,12,52,37,846,2622,437,3531,-1095,2189,148,
1528,7,28,2023,12,52,37,856,2704,-17,3621,-889,1862,-125,
1529,7,28,2023,12,52,37,866,2519,672,3544,-634,1508,-548,
1530,7,28,2023,12,52,37,876,2253,1565,3408,-506,1230,-682,
1531,7,28,2023,12,52,37,896,2187,1541,3257,-483,942,-158,
1532,7,28,2023,12,52,37,906,2264,1222,3265,-441,866,59,
1533,7,28,2023,12,52,37,916,2338,1115,3225,-345,786,159,
1534,7,28,2023,12,52,37,926,2333,1123,3221,-271,716,166,
1535,7,28,2023,12,52,37,936,2314,1138,3321,-229,651,187,
1536,7,28,2023,12,52,37,946,2246,1239,3406,-198,534,218,
1537,7,28,2023,12,52,37,956,2154,1325,3440,-191,375,274,
1538,7,28,2023,12,52,37,966,2159,1271,3436,-217,203,349,
1539,7,28,2023,12,52,37,976,2280,1265,3264,-253,60,399,
1540,7,28,2023,12,52,37,986,2417,1186,3138,-320,27,418,
1541,7,28,2023,12,52,37,996,2379,1081,3132,-378,70,408,
1542,7,28,2023,12,52,38,6,2279,963,3209,-393,98,370,
1543,7,28,2023,12,52,38,16,2295,937,3312,-360,74,309,
1544,7,28,2023,12,52,38,26,2281,984,3355,-312,15,260,
1545,7,28,2023,12,52,38,36,2220,1075,3402,-277,-89,253,
1546,7,28,2023,12,52,38,46,2219,1200,3342,-278,-215,299,
1547,7,28,2023,12,52,38,56,2293,1082,3338,-296,-304,383,
1548,7,28,2023,12,52,38,66,2324,921,3348,-268,-387,408,
1549,7,28,2023,12,52,38,76,2294,858,3307,-197,-474,382,
1550,7,28,2023,12,52,38,86,2283,801,3304,-106,-564,337,
1551,7,28,2023,12,52,38,96,2335,779,3285,-7,-647,255,
1552,7,28,2023,12,52,38,106,2361,908,3188,80,-709,166,
1553,7,28,2023,12,52,38,116,2302,1024,3158,130,-732,142,
1554,7,28,2023,12,52,38,126,2318,1000,3114,163,-735,173,
1555,7,28,2023,12,52,38,136,2314,851,3189,198,-743,194,
1556,7,28,2023,12,52,38,146,2198,687,3392,176,-805,168,
1557,7,28,2023,12,52,38,156,2205,591,3574,195,-954,59,
1558,7,28,2023,12,52,38,166,2348,899,3419,308,-1181,-71,
1559,7,28,2023,12,52,38,176,2489,1124,3240,387,-1382,-56,
1560,7,28,2023,12,52,38,186,2493,1340,3202,379,-1519,33,
1561,7,28,2023,12,52,38,196,2429,1469,3201,245,-1650,168,
1562,7,28,2023,12,52,38,206,2495,1500,3130,149,-1790,331,
1563,7,28,2023,12,52,38,216,2467,1531,3099,120,-1913,530,
1564,7,28,2023,12,52,38,226,2526,1421,3218,90,-2043,728,
1565,7,28,2023,12,52,38,236,2558,1385,3456,85,-2292,907,
1566,7,28,2023,12,52,38,246,2588,1526,3639,144,-2683,1116,
1567,7,28,2023,12,52,38,256,2412,1288,3817,149,-3118,1370,
1568,7,28,2023,12,52,38,266,2486,962,3968,206,-3638,1528,
1569,7,28,2023,12,52,38,276,2519,690,4002,338,-4195,1583,
1570,7,28,2023,12,52,38,286,2540,347,4193,603,-4749,1583,
1571,7,28,2023,12,52,38,296,2495,226,4469,829,-5302,1464,
1572,7,28,2023,12,52,38,306,2337,463,4168,809,-5977,1323,
1573,7,28,2023,12,52,38,316,2515,1274,3718,657,-6928,1345,
1574,7,28,2023,12,52,38,326,2697,1669,3612,374,-8037,1639,
1575,7,28,2023,12,52,38,336,2895,1549,3865,59,-9053,2000,
1576,7,28,2023,12,52,38,346,3526,1675,4202,-31,-9814,2212,
1577,7,28,2023,12,52,38,356,4383,2584,3654,49,-10050,2440,
1578,7,28,2023,12,52,38,366,5014,1575,3170,4,-10150,2835,
1579,7,28,2023,12,52,38,376,7625,2571,3681,336,-9973,3089,
1580,7,28,2023,12,52,38,386,8735,1747,3371,122,-8785,3218,
1581,7,28,2023,12,52,38,396,10637,2712,3646,750,-7314,2961,
1582,7,28,2023,12,52,38,406,10434,530,346,934,-5897,3209,
1583,7,28,2023,12,52,38,416,11843,-673,-1927,1392,-6059,3431,
1584,7,28,2023,12,52,38,426,18471,870,-834,1813,-5893,2956,
1585,7,28,2023,12,52,38,436,18932,4185,1471,1142,-3275,1454,
1586,7,28,2023,12,52,38,446,11578,1430,705,-425,-291,299,
1587,7,28,2023,12,52,38,456,10212,198,1570,-527,-1024,335,
1588,7,28,2023,12,52,38,466,9473,671,2552,654,-2069,721,
1589,7,28,2023,12,52,38,476,8789,1581,3466,1652,-2409,1282,
1590,7,28,2023,12,52,38,486,7162,2097,4239,1972,-2042,1922,
1591,7,28,2023,12,52,38,496,5130,2237,4703,1839,-1555,2542,
1592,7,28,2023,12,52,38,506,3855,2131,5024,1500,-1095,2922,
1593,7,28,2023,12,52,38,516,2532,1993,5026,1150,-388,2909,
1594,7,28,2023,12,52,38,526,443,2058,4795,747,491,2598,
1595,7,28,2023,12,52,38,536,-1428,1950,4480,279,1131,2279,
1596,7,28,2023,12,52,38,546,-2235,1577,4220,-58,1642,1878,
1597,7,28,2023,12,52,38,556,-2953,1265,3852,-63,2404,1241,
1598,7,28,2023,12,52,38,566,-3878,1429,3404,200,3164,543,
1599,7,28,2023,12,52,38,576,-4109,1758,2982,403,3718,-39,
1600,7,28,2023,12,52,38,586,-4133,1893,2619,346,4258,-585,
1601,7,28,2023,12,52,38,596,-4349,1787,2186,167,4820,-1171,
1602,7,28,2023,12,52,38,606,-4547,1575,1869,78,5230,-1752,
1603,7,28,2023,12,52,38,616,-3933,1540,1702,281,5482,-2328,
1604,7,28,2023,12,52,38,626,-3578,1828,1391,524,5937,-2965,
1605,7,28,2023,12,52,38,636,-3652,1811,1047,537,6422,-3520,
1606,7,28,2023,12,52,38,646,-3480,1529,803,531,6647,-3962,
1607,7,28,2023,12,52,38,656,-2738,1365,856,709,6706,-4385,
1608,7,28,2023,12,52,38,666,-1934,1283,904,930,6903,-4899,
1609,7,28,2023,12,52,38,676,-1120,1110,825,1059,7269,-5385,
1610,7,28,2023,12,52,38,686,-424,106,211,1125,7610,-5814,
1611,7,28,2023,12,52,38,696,617,-463,-634,1467,7459,-5956,
1612,7,28,2023,12,52,38,706,2211,-451,-1202,1803,6898,-5597,
1613,7,28,2023,12,52,38,716,3676,-935,-1711,1789,6281,-5061,
1614,7,28,2023,12,52,38,726,5096,-1060,-2332,1821,5527,-4609,
1615,7,28,2023,12,52,38,736,7173,-682,-2943,1719,4571,-4257,
1616,7,28,2023,12,52,38,756,9014,-1760,-4152,899,2293,-4014,
1617,7,28,2023,12,52,38,766,9268,-2011,-4596,831,698,-3899,
1618,7,28,2023,12,52,38,776,9979,-1952,-4491,546,-842,-3573,
1619,7,28,2023,12,52,38,786,11628,-1142,-4828,-268,-1603,-3099,
1620,7,28,2023,12,52,38,796,26338,-2683,-4816,-2653,-993,-1040,
1621,7,28,2023,12,52,38,806,18868,-703,-4146,-3107,2536,1982,
1622,7,28,2023,12,52,38,816,-2622,4108,8161,-2076,1689,-43,
1623,7,28,2023,12,52,38,826,-3762,-2161,8914,-2731,2313,-712,
1624,7,28,2023,12,52,38,836,4835,4117,2605,-280,3318,-103,
1625,7,28,2023,12,52,38,846,4810,-94,3093,-1370,2386,41,
1626,7,28,2023,12,52,38,856,2276,-535,4333,-772,1724,-145,
1627,7,28,2023,12,52,38,866,2628,402,3113,-741,1457,-652,
1628,7,28,2023,12,52,38,876,3311,1834,1732,-610,1496,-851,
1629,7,28,2023,12,52,38,886,3084,1463,2078,-662,1861,-818,
1630,7,28,2023,12,52,38,896,3027,2632,2156,-639,2388,-702,
1631,7,28,2023,12,52,38,906,2714,2750,2619,-830,2801,-235,
1632,7,28,2023,12,52,38,916,2301,1474,3228,-1161,2988,189,
1633,7,28,2023,12,52,38,926,2576,1211,3529,-1244,2881,271,
1634,7,28,2023,12,52,38,936,2477,1599,3597,-1282,2549,279,
1635,7,28,2023,12,52,38,946,2131,1172,3619,-1203,2162,384,
1636,7,28,2023,12,52,38,956,2121,825,3670,-984,1761,409,
1637,7,28,2023,12,52,38,966,2362,993,3602,-775,1346,325,
1638,7,28,2023,12,52,38,976,2435,1285,3432,-611,1035,269,
1639,7,28,2023,12,52,38,986,2218,1208,3394,-526,836,296,
1640,7,28,2023,12,52,38,996,2090,1037,3480,-443,631,306,
1641,7,28,2023,12,52,39,6,2296,1047,3547,-338,383,261,
1642,7,28,2023,12,52,39,16,2390,1168,3442,-237,154,222,
1643,7,28,2023,12,52,39,26,2198,1162,3292,-167,-4,222,
1644,7,28,2023,12,52,39,36,2204,1093,3209,-122,-116,228,
1645,7,28,2023,12,52,39,46,2459,1083,3226,-78,-177,211,
1646,7,28,2023,12,52,39,56,2495,1128,3272,-62,-203,198,
1647,7,28,2023,12,52,39,66,2200,1090,3279,-52,-252,197,
1648,7,28,2023,12,52,39,76,2198,1030,3230,-4,-334,183,
1649,7,28,2023,12,52,39,86,2503,918,3258,70,-383,140,
1650,7,28,2023,12,52,39,96,2471,1026,3341,190,-435,81,
1651,7,28,2023,12,52,39,106,2174,1283,3348,278,-567,77,
1652,7,28,2023,12,52,39,116,2194,1199,3358,316,-755,148,
1653,7,28,2023,12,52,39,126,2483,1223,3396,326,-925,201,
1654,7,28,2023,12,52,39,136,2447,896,3289,242,-1065,197,
1655,7,28,2023,12,52,39,146,2209,1076,3076,322,-1155,117,
1656,7,28,2023,12,52,39,156,2341,1040,2938,360,-1151,101,
1657,7,28,2023,12,52,39,166,2652,706,2942,407,-1052,67,
1658,7,28,2023,12,52,39,176,2588,502,3001,484,-923,-106,
1659,7,28,2023,12,52,39,186,2349,859,2891,523,-841,-355,
1660,7,28,2023,12,52,39,196,2432,1396,2676,490,-757,-469,
1661,7,28,2023,12,52,39,206,2722,1379,2591,427,-575,-423,
1662,7,28,2023,12,52,39,216,2629,1231,2524,397,-327,-393,
1663,7,28,2023,12,52,39,226,2428,1129,2555,387,-85,-418,
1664,7,28,2023,12,52,39,236,2604,1311,2568,385,127,-463,
1665,7,28,2023,12,52,39,246,2600,1632,2668,279,345,-398,
1666,7,28,2023,12,52,39,256,2442,1643,2824,165,503,-260,
1667,7,28,2023,12,52,39,266,2293,1686,2809,100,553,-79,
1668,7,28,2023,12,52,39,276,2457,1571,2958,26,553,124,
1669,7,28,2023,12,52,39,286,2490,1227,3201,-144,511,224,
1670,7,28,2023,12,52,39,296,2255,1394,3379,-185,352,247,
1671,7,28,2023,12,52,39,306,2162,1004,3709,-136,76,302,
1672,7,28,2023,12,52,39,316,2422,844,3713,22,-322,252,
1673,7,28,2023,12,52,39,326,2399,1135,3710,200,-727,151,
1674,7,28,2023,12,52,39,336,2274,1383,3839,320,-1146,142,
1675,7,28,2023,12,52,39,346,2170,1406,4045,429,-1685,226,
1676,7,28,2023,12,52,39,356,2392,1215,4021,468,-2316,316,
1677,7,28,2023,12,52,39,366,2491,1114,3985,559,-2942,334,
1678,7,28,2023,12,52,39,376,2346,1089,4198,788,-3599,340,
1679,7,28,2023,12,52,39,386,2090,1128,4497,985,-4330,408,
1680,7,28,2023,12,52,39,396,2216,1193,4465,958,-5091,523,
1681,7,28,2023,12,52,39,406,2083,1468,4275,946,-5912,693,
1682,7,28,2023,12,52,39,416,1855,1807,4221,914,-7053,1012,
1683,7,28,2023,12,52,39,426,2106,2384,4315,829,-8246,1467,
1684,7,28,2023,12,52,39,436,2695,2707,4365,493,-9198,1993,
1685,7,28,2023,12,52,39,446,3075,1400,4264,439,-9944,2270,
1686,7,28,2023,12,52,39,456,3640,2410,3820,1071,-10776,2436,
1687,7,28,2023,12,52,39,466,6921,3501,4677,1453,-11236,2817,
1688,7,28,2023,12,52,39,476,9048,4864,3421,1433,-10057,3199,
1689,7,28,2023,12,52,39,486,11487,2763,4003,17,-8437,4103,
1690,7,28,2023,12,52,39,496,12533,-210,1967,71,-6718,4441,
1691,7,28,2023,12,52,39,506,12311,283,457,1681,-6278,4542,
1692,7,28,2023,12,52,39,516,15958,520,1544,1609,-6231,5788,
1693,7,28,2023,12,52,39,526,21249,4036,4034,779,-4090,5599,
1694,7,28,2023,12,52,39,536,12040,3282,3767,-923,170,4630,
1695,7,28,2023,12,52,39,546,8356,640,3474,-1824,578,4625,
1696,7,28,2023,12,52,39,556,7858,-323,3943,-818,-669,4588,
1697,7,28,2023,12,52,39,566,7652,1127,4068,979,-1443,4233,
1698,7,28,2023,12,52,39,576,6650,3018,4312,1519,-1569,4066,
1699,7,28,2023,12,52,39,586,4657,3486,4480,600,-1365,4202,
1700,7,28,2023,12,52,39,596,2885,2680,4571,-558,-1224,4251,
1701,7,28,2023,12,52,39,616,555,2295,4198,-711,-682,3161,
1702,7,28,2023,12,52,39,626,-725,2991,3762,-745,115,2306,
1703,7,28,2023,12,52,39,636,-2579,2792,3271,-1304,1017,1531,
1704,7,28,2023,12,52,39,646,-3939,1962,2835,-1703,1533,786,
1705,7,28,2023,12,52,39,656,-4298,1735,2486,-1415,1779,48,
1706,7,28,2023,12,52,39,666,-4203,2115,2291,-907,2110,-674,
1707,7,28,2023,12,52,39,676,-4052,2270,2164,-637,2689,-1305,
1708,7,28,2023,12,52,39,686,-3878,2031,2048,-413,3462,-1864,
1709,7,28,2023,12,52,39,696,-3924,1819,1695,19,4336,-2398,
1710,7,28,2023,12,52,39,706,-4210,1701,1276,420,5063,-2839,
1711,7,28,2023,12,52,39,716,-3932,1510,1029,640,5498,-3150,
1712,7,28,2023,12,52,39,726,-3289,1228,1012,795,5920,-3385,
1713,7,28,2023,12,52,39,736,-2915,982,911,982,6508,-3641,
1714,7,28,2023,12,52,39,746,-2400,1144,765,1142,7068,-3861,
1715,7,28,2023,12,52,39,756,-1659,817,625,1059,7539,-4112,
1716,7,28,2023,12,52,39,766,-998,122,175,965,7769,-4570,
1717,7,28,2023,12,52,39,776,-111,87,-337,1138,7625,-4943,
1718,7,28,2023,12,52,39,786,1104,-161,-657,1161,7305,-5124,
1719,7,28,2023,12,52,39,796,2429,-478,-952,1103,6977,-5178,
1720,7,28,2023,12,52,39,806,3552,-553,-1385,1129,6641,-5042,
1721,7,28,2023,12,52,39,816,4857,-569,-1782,1094,6031,-4768,
1722,7,28,2023,12,52,39,826,6379,-486,-2186,927,5119,-4575,
1723,7,28,2023,12,52,39,836,7933,-250,-2634,620,4112,-4515,
1724,7,28,2023,12,52,39,846,9114,-308,-3363,311,3125,-4372,
1725,7,28,2023,12,52,39,856,9242,-746,-4623,295,1953,-4080,
1726,7,28,2023,12,52,39,866,8640,-792,-5773,750,139,-3737,
1727,7,28,2023,12,52,39,876,9579,147,-5738,1162,-2280,-3651,
1728,7,28,2023,12,52,39,886,13373,2023,-5541,578,-3729,-3931,
1729,7,28,2023,12,52,39,896,28462,-3682,596,-2138,-2127,-1146,
1730,7,28,2023,12,52,39,906,6163,-289,219,-2122,5106,3268,
1731,7,28,2023,12,52,39,916,-5190,5920,7946,-423,3581,467,
1732,7,28,2023,12,52,39,926,-589,-1826,6209,-1497,3846,243,
1733,7,28,2023,12,52,39,936,6061,1524,2687,-1020,4641,884,
1734,7,28,2023,12,52,39,946,4547,-1663,4088,-1493,3842,-94,
1735,7,28,2023,12,52,39,956,1787,-1108,5241,-643,2657,-898,
1736,7,28,2023,12,52,39,966,1975,1676,3609,-522,1771,-1399,
1737,7,28,2023,12,52,39,976,2704,2898,2785,-450,1280,-1242,
1738,7,28,2023,12,52,39,986,3023,2949,2801,-603,1211,-652,
1739,7,28,2023,12,52,39,996,2513,1790,2976,-806,1335,-88,
1740,7,28,2023,12,52,40,6,2458,755,2967,-906,1434,140,
1741,7,28,2023,12,52,40,16,2610,528,3042,-869,1432,10,
1742,7,28,2023,12,52,40,26,2706,1130,3152,-739,1415,-205,
1743,7,28,2023,12,52,40,36,2394,1639,3149,-689,1405,-229,
1744,7,28,2023,12,52,40,46,2062,1564,3211,-741,1368,-54,
1745,7,28,2023,12,52,40,56,2226,1172,3333,-781,1274,114,
1746,7,28,2023,12,52,40,66,2430,920,3481,-724,1112,137,
1747,7,28,2023,12,52,40,76,2393,1041,3451,-559,918,87,
1748,7,28,2023,12,52,40,86,2168,1108,3380,-421,752,74,
1749,7,28,2023,12,52,40,96,2215,966,3406,-347,603,90,
1750,7,28,2023,12,52,40,106,2541,933,3402,-267,475,58,
1751,7,28,2023,12,52,40,116,2363,898,3391,-174,399,-1,
1752,7,28,2023,12,52,40,126,2063,946,3368,-88,308,-61,
1753,7,28,2023,12,52,40,136,2192,1041,3311,-22,206,-102,
1754,7,28,2023,12,52,40,146,2464,1145,3291,7,154,-114,
1755,7,28,2023,12,52,40,156,2280,1184,3283,-2,137,-104,
1756,7,28,2023,12,52,40,166,1934,1220,3242,-10,82,-72,
1757,7,28,2023,12,52,40,176,2199,1210,3247,-23,20,-14,
1758,7,28,2023,12,52,40,186,2412,1240,3274,-42,5,29,
1759,7,28,2023,12,52,40,196,2123,1294,3224,-78,1,69,
1760,7,28,2023,12,52,40,206,1999,1309,3120,-119,-3,126,
1761,7,28,2023,12,52,40,216,2343,1110,3116,-172,36,176,
1762,7,28,2023,12,52,40,226,2545,880,3210,-190,106,163,
1763,7,28,2023,12,52,40,236,2141,732,3301,-144,122,93,
1764,7,28,2023,12,52,40,246,1837,907,3373,-43,32,15,
1765,7,28,2023,12,52,40,256,2124,1072,3427,25,-85,-1,
1766,7,28,2023,12,52,40,266,2246,977,3423,63,-162,7,
1767,7,28,2023,12,52,40,276,2047,1038,3296,112,-231,-20,
1768,7,28,2023,12,52,40,286,2019,1145,3180,144,-294,-5,
1769,7,28,2023,12,52,40,296,2329,1091,3218,138,-327,55,
1770,7,28,2023,12,52,40,306,2339,1098,3278,128,-340,80,
1771,7,28,2023,12,52,40,316,2056,1290,3217,130,-386,104,
1772,7,28,2023,12,52,40,326,2105,1381,3181,92,-433,198,
1773,7,28,2023,12,52,40,336,2359,1326,3177,40,-445,304,
1774,7,28,2023,12,52,40,346,2336,1257,3245,-12,-441,380,
1775,7,28,2023,12,52,40,356,2057,1254,3303,-26,-500,442,
1776,7,28,2023,12,52,40,366,2167,1168,3374,-27,-628,519,
1777,7,28,2023,12,52,40,376,2540,1180,3327,14,-765,569,
1778,7,28,2023,12,52,40,386,2556,1304,3378,112,-881,621,
1779,7,28,2023,12,52,40,396,2154,1322,3554,200,-1095,735,
1780,7,28,2023,12,52,40,406,2356,1087,3704,325,-1438,846,
1781,7,28,2023,12,52,40,416,2451,684,3822,346,-1840,898,
1782,7,28,2023,12,52,40,426,2321,1091,3967,519,-2272,830,
1783,7,28,2023,12,52,40,436,2063,592,4058,459,-2793,845,
1784,7,28,2023,12,52,40,446,2276,846,4096,638,-3411,758,
1785,7,28,2023,12,52,40,456,2422,910,4392,780,-4053,704,
1786,7,28,2023,12,52,40,476,2141,979,4423,922,-5569,502,
1787,7,28,2023,12,52,40,486,2526,1872,4262,1165,-6204,585,
1788,7,28,2023,12,52,40,496,2409,1402,4210,956,-6628,911,
1789,7,28,2023,12,52,40,506,2139,1299,4002,697,-7397,1214,
1790,7,28,2023,12,52,40,516,2189,1926,3951,493,-8610,1664,
1791,7,28,2023,12,52,40,526,3362,1999,4005,379,-9800,2164,
1792,7,28,2023,12,52,40,536,5108,2108,4249,739,-10271,2181,
1793,7,28,2023,12,52,40,546,7886,3779,4098,1083,-9716,2297,
1794,7,28,2023,12,52,40,556,9673,4324,3800,607,-7970,2992,
1795,7,28,2023,12,52,40,566,11818,188,1717,375,-6520,3920,
1796,7,28,2023,12,52,40,576,15034,-871,196,2273,-6064,4775,
1797,7,28,2023,12,52,40,586,17476,448,1178,3479,-5342,5986,
1798,7,28,2023,12,52,40,596,20784,3988,3316,3124,-3426,6028,
1799,7,28,2023,12,52,40,606,11992,3116,2202,1516,-753,4921,
1800,7,28,2023,12,52,40,616,9663,2151,1713,323,-2194,4905,
1801,7,28,2023,12,52,40,626,9801,2196,3162,-70,-4531,4957,
1802,7,28,2023,12,52,40,636,9539,2427,4558,175,-5634,4412,
1803,7,28,2023,12,52,40,646,8054,2963,5444,523,-5609,3636,
1804,7,28,2023,12,52,40,656,5792,3168,5879,514,-5064,3075,
1805,7,28,2023,12,52,40,666,3779,3090,6034,261,-4462,2747,
1806,7,28,2023,12,52,40,676,2158,2931,6020,-63,-3837,2484,
1807,7,28,2023,12,52,40,686,909,2741,5884,-408,-3008,2167,
1808,7,28,2023,12,52,40,696,-550,2263,5489,-700,-1806,1728,
1809,7,28,2023,12,52,40,706,-2228,1903,4999,-674,-503,1224,
1810,7,28,2023,12,52,40,716,-3504,1973,4422,-390,570,739,
1811,7,28,2023,12,52,40,726,-4252,2189,3950,-232,1458,276,
1812,7,28,2023,12,52,40,736,-4545,2083,3525,-219,2289,-183,
1813,7,28,2023,12,52,40,746,-4742,2029,3025,-91,3138,-681,
1814,7,28,2023,12,52,40,756,-4851,2007,2565,124,3914,-1160,
1815,7,28,2023,12,52,40,766,-4913,1956,2062,365,4576,-1642,
1816,7,28,2023,12,52,40,776,-4880,2057,1666,540,5041,-2156,
1817,7,28,2023,12,52,40,786,-4252,2157,1449,599,5380,-2676,
1818,7,28,2023,12,52,40,796,-3748,2207,1202,567,5879,-3224,
1819,7,28,2023,12,52,40,806,-3531,2140,930,490,6398,-3774,
1820,7,28,2023,12,52,40,816,-2905,1837,836,514,6717,-4322,
1821,7,28,2023,12,52,40,826,-2078,1655,724,744,6971,-5008,
1822,7,28,2023,12,52,40,836,-1409,1452,613,911,7231,-5757,
1823,7,28,2023,12,52,40,846,-875,693,479,920,7317,-6433,
1824,7,28,2023,12,52,40,856,72,281,434,979,7152,-6855,
1825,7,28,2023,12,52,40,866,1510,-256,413,967,6948,-6991,
1826,7,28,2023,12,52,40,876,2901,-1120,25,921,6765,-6951,
1827,7,28,2023,12,52,40,886,4499,-1396,-585,1013,6371,-6500,
1828,7,28,2023,12,52,40,896,6427,-1396,-1103,938,5907,-5595,
1829,7,28,2023,12,52,40,906,8237,-1567,-1586,512,5572,-4516,
1830,7,28,2023,12,52,40,916,9429,-1946,-2294,135,5273,-3439,
1831,7,28,2023,12,52,40,926,10010,-1814,-3244,-37,4618,-2496,
1832,7,28,2023,12,52,40,936,10481,-1516,-4060,-283,3379,-1763,
1833,7,28,2023,12,52,40,946,10317,-1450,-4817,-531,1830,-1302,
1834,7,28,2023,12,52,40,956,9398,-1324,-5294,-620,72,-1100,
1835,7,28,2023,12,52,40,966,13191,1174,-4816,-790,-1491,-1180,
1836,7,28,2023,12,52,40,976,28246,-2019,-1476,-2717,-491,-142,
1837,7,28,2023,12,52,40,986,7097,-512,1822,-2453,4350,1746,
1838,7,28,2023,12,52,40,996,-5985,1928,8335,-1743,3732,-22,
1839,7,28,2023,12,52,41,6,870,459,5753,-1254,4010,-282,
1840,7,28,2023,12,52,41,16,5729,2946,3250,-1178,4095,547,
1841,7,28,2023,12,52,41,26,2468,368,4313,-1708,2861,363,
1842,7,28,2023,12,52,41,36,1858,-603,4527,-1261,2098,232,
1843,7,28,2023,12,52,41,46,3167,1415,3077,-769,1706,-16,
1844,7,28,2023,12,52,41,56,2345,1484,2925,-673,1449,-94,
1845,7,28,2023,12,52,41,66,2939,965,3026,-733,1495,-93,
1846,7,28,2023,12,52,41,76,2815,1390,3241,-718,1500,-151,
1847,7,28,2023,12,52,41,86,2369,708,3546,-727,1396,-172,
1848,7,28,2023,12,52,41,96,2330,608,3455,-588,1146,-349,
1849,7,28,2023,12,52,41,106,2624,1150,3193,-429,977,-489,
1850,7,28,2023,12,52,41,116,2493,1559,3149,-415,999,-440,
1851,7,28,2023,12,52,41,126,2087,1228,3361,-443,1028,-277,
1852,7,28,2023,12,52,41,136,2023,982,3496,-360,879,-208,
1853,7,28,2023,12,52,41,146,2379,999,3530,-202,680,-218,
1854,7,28,2023,12,52,41,156,2361,1139,3475,-89,536,-236,
1855,7,28,2023,12,52,41,166,2013,1226,3398,-23,387,-194,
1856,7,28,2023,12,52,41,176,2076,1195,3365,11,202,-120,
1857,7,28,2023,12,52,41,186,2447,1233,3337,42,55,-80,
1858,7,28,2023,12,52,41,196,2377,1329,3249,43,-22,-58,
1859,7,28,2023,12,52,41,206,2078,1383,3115,9,-62,5,
1860,7,28,2023,12,52,41,216,2226,1369,3047,-52,-69,94,
1861,7,28,2023,12,52,41,226,2563,1258,3119,-134,-7,171,
1862,7,28,2023,12,52,41,236,2318,1120,3301,-178,55,195,
1863,7,28,2023,12,52,41,246,1864,1101,3415,-141,-32,186,
1864,7,28,2023,12,52,41,256,2037,1164,3412,-75,-219,179,
1865,7,28,2023,12,52,41,266,2392,1307,3270,-38,-355,183,
1866,7,28,2023,12,52,41,276,2315,1310,3200,-80,-376,242,
1867,7,28,2023,12,52,41,286,2056,1123,3248,-135,-402,332,
1868,7,28,2023,12,52,41,296,2158,1099,3263,-125,-487,369,
1869,7,28,2023,12,52,41,306,2466,937,3340,-87,-541,373,
1870,7,28,2023,12,52,41,316,2303,701,3378,21,-608,312,
1871,7,28,2023,12,52,41,336,2279,1034,3089,202,-847,156,
1872,7,28,2023,12,52,41,346,2489,944,3148,181,-848,137,
1873,7,28,2023,12,52,41,356,2407,887,3153,197,-803,64,
1874,7,28,2023,12,52,41,366,2278,998,3126,275,-827,-1,
1875,7,28,2023,12,52,41,376,2382,1391,3037,331,-876,11,
1876,7,28,2023,12,52,41,386,2602,1523,2992,309,-825,126,
1877,7,28,2023,12,52,41,396,2384,1419,3042,219,-789,269,
1878,7,28,2023,12,52,41,406,2185,1363,3115,134,-852,375,
1879,7,28,2023,12,52,41,416,2605,1117,3136,142,-949,453,
1880,7,28,2023,12,52,41,426,2686,781,3313,255,-1039,432,
1881,7,28,2023,12,52,41,436,2384,828,3462,389,-1199,320,
1882,7,28,2023,12,52,41,446,2158,1064,3585,443,-1479,257,
1883,7,28,2023,12,52,41,456,2508,1050,3595,525,-1834,264,
1884,7,28,2023,12,52,41,466,2631,1287,3527,659,-2182,278,
1885,7,28,2023,12,52,41,476,2397,1390,3457,764,-2519,361,
1886,7,28,2023,12,52,41,486,2328,1409,3491,802,-2847,508,
1887,7,28,2023,12,52,41,496,2495,1275,3708,680,-3155,660,
1888,7,28,2023,12,52,41,506,2438,1199,3923,710,-3561,795,
1889,7,28,2023,12,52,41,516,2247,901,3981,829,-4163,944,
1890,7,28,2023,12,52,41,526,2343,809,3898,959,-4860,1000,
1891,7,28,2023,12,52,41,536,2401,781,3990,1000,-5672,972,
1892,7,28,2023,12,52,41,546,2596,715,4115,815,-6656,908,
1893,7,28,2023,12,52,41,556,2684,1318,4046,467,-7591,876,
1894,7,28,2023,12,52,41,566,2708,1216,3960,177,-8409,953,
1895,7,28,2023,12,52,41,576,3452,877,4136,540,-9125,927,
1896,7,28,2023,12,52,41,586,3817,1654,3478,1231,-9629,843,
1897,7,28,2023,12,52,41,596,5856,2599,4167,1629,-9992,877,
1898,7,28,2023,12,52,41,606,6448,3389,3494,1554,-9125,1169,
1899,7,28,2023,12,52,41,616,9892,4090,3312,1149,-8179,1809,
1900,7,28,2023,12,52,41,626,10093,3087,2443,857,-6310,2645,
1901,7,28,2023,12,52,41,636,10024,-794,325,2132,-5136,3216,
1902,7,28,2023,12,52,41,646,13133,1581,-359,4730,-5446,4321,
1903,7,28,2023,12,52,41,656,20304,4630,1266,4517,-4192,5179,
1904,7,28,2023,12,52,41,666,15456,3939,1985,2408,-606,4815,
1905,7,28,2023,12,52,41,676,10774,1314,896,1484,526,4909,
1906,7,28,2023,12,52,41,686,9933,1913,1361,1787,-1105,5825,
1907,7,28,2023,12,52,41,696,9730,2748,2441,1848,-2509,6410,
1908,7,28,2023,12,52,41,706,9203,3313,3574,1304,-3073,6331,
1909,7,28,2023,12,52,41,716,7402,3295,4341,476,-2964,5744,
1910,7,28,2023,12,52,41,726,5733,2921,4889,-196,-2761,4886,
1911,7,28,2023,12,52,41,736,4392,2825,5170,-522,-2416,3767,
1912,7,28,2023,12,52,41,746,2518,2913,5158,-859,-1822,2577,
1913,7,28,2023,12,52,41,756,107,2660,4949,-1394,-1167,1586,
1914,7,28,2023,12,52,41,766,-1647,1893,4614,-1809,-708,898,
1915,7,28,2023,12,52,41,776,-2497,1076,4370,-1658,-273,310,
1916,7,28,2023,12,52,41,786,-2938,981,4250,-988,398,-293,
1917,7,28,2023,12,52,41,796,-3103,1588,3983,-282,1321,-767,
1918,7,28,2023,12,52,41,806,-3839,1923,3513,-200,2411,-1042,
1919,7,28,2023,12,52,41,816,-4661,1446,2921,-448,3288,-1105,
1920,7,28,2023,12,52,41,826,-4896,1046,2508,-319,3791,-1094,
1921,7,28,2023,12,52,41,836,-4212,1211,2393,181,4199,-1188,
1922,7,28,2023,12,52,41,846,-3716,1459,2179,579,4954,-1522,
1923,7,28,2023,12,52,41,856,-3844,1491,1830,672,5812,-1996,
1924,7,28,2023,12,52,41,866,-3400,1277,1625,735,6397,-2427,
1925,7,28,2023,12,52,41,876,-2949,1051,1267,946,6941,-2917,
1926,7,28,2023,12,52,41,886,-2829,1127,877,1105,7348,-3435,
1927,7,28,2023,12,52,41,896,-2235,1194,541,1100,7434,-3830,
1928,7,28,2023,12,52,41,906,-1162,987,416,1026,7397,-4202,
1929,7,28,2023,12,52,41,916,-259,278,170,1031,7411,-4829,
1930,7,28,2023,12,52,41,926,779,-89,-287,1319,7300,-5510,
1931,7,28,2023,12,52,41,936,1891,-345,-932,1501,7067,-5914,
1932,7,28,2023,12,52,41,946,3301,-742,-1421,1394,6552,-5837,
1933,7,28,2023,12,52,41,956,5050,-951,-1835,1327,5896,-5407,
1934,7,28,2023,12,52,41,966,6678,-822,-2352,1299,5351,-4824,
1935,7,28,2023,12,52,41,976,8037,-755,-2941,1104,4804,-4287,
1936,7,28,2023,12,52,41,986,8903,-937,-3659,735,4071,-3901,
1937,7,28,2023,12,52,41,996,9176,-1335,-4447,427,3092,-3516,
1938,7,28,2023,12,52,42,6,8823,-1475,-5368,328,1819,-2968,
1939,7,28,2023,12,52,42,16,7963,-1324,-6114,187,175,-2208,
1940,7,28,2023,12,52,42,26,6972,-1199,-6201,-81,-1747,-1522,
1941,7,28,2023,12,52,42,36,11194,626,-6171,-356,-3425,-1318,
1942,7,28,2023,12,52,42,46,27969,-1226,2753,-2683,-1744,303,
1943,7,28,2023,12,52,42,56,680,-217,2229,-2654,6148,508,
1944,7,28,2023,12,52,42,66,-4283,1068,9071,-1480,4708,-1278,
1945,7,28,2023,12,52,42,76,3232,1959,4555,-929,5068,-820,
1946,7,28,2023,12,52,42,86,4364,2408,3283,-1359,4977,-325,
1947,7,28,2023,12,52,42,96,2515,-394,5101,-1264,3817,-228,
1948,7,28,2023,12,52,42,106,1882,-900,4959,-602,2441,-668,
1949,7,28,2023,12,52,42,116,2690,2130,3093,-305,1700,-1078,
1950,7,28,2023,12,52,42,126,2705,2474,2807,-354,1457,-896,
1951,7,28,2023,12,52,42,136,2631,2343,2877,-491,1501,-503,
1952,7,28,2023,12,52,42,146,2613,1775,2904,-702,1611,-152,
1953,7,28,2023,12,52,42,156,2467,1237,2981,-848,1680,25,
1954,7,28,2023,12,52,42,166,2514,915,3109,-848,1705,3,
1955,7,28,2023,12,52,42,176,2470,1022,3294,-727,1661,-98,
1956,7,28,2023,12,52,42,196,2214,1486,3362,-402,1241,-80,
1957,7,28,2023,12,52,42,206,2338,1596,3271,-380,1042,58,
1958,7,28,2023,12,52,42,216,2355,1424,3324,-435,927,211,
1959,7,28,2023,12,52,42,226,2186,1048,3541,-420,774,279,
1960,7,28,2023,12,52,42,236,2095,998,3625,-294,478,243,
1961,7,28,2023,12,52,42,246,2199,1122,3513,-146,139,179,
1962,7,28,2023,12,52,42,256,2322,1323,3327,-60,-100,158,
1963,7,28,2023,12,52,42,266,2289,1365,3260,-24,-212,191,
1964,7,28,2023,12,52,42,276,2235,1292,3273,-20,-300,250,
1965,7,28,2023,12,52,42,286,2314,1091,3296,-47,-396,263,
1966,7,28,2023,12,52,42,296,2355,1067,3275,12,-496,204,
1967,7,28,2023,12,52,42,306,2325,1207,3166,74,-574,148,
1968,7,28,2023,12,52,42,316,2359,1299,3081,93,-594,145,
1969,7,28,2023,12,52,42,326,2433,1305,3080,103,-585,185,
1970,7,28,2023,12,52,42,336,2398,1188,3183,94,-586,221,
1971,7,28,2023,12,52,42,346,2283,1121,3261,165,-652,217,
1972,7,28,2023,12,52,42,356,2302,1135,3271,264,-768,191,
1973,7,28,2023,12,52,42,366,2369,1070,3262,234,-912,183,
1974,7,28,2023,12,52,42,376,2386,1136,3122,227,-1021,162,
1975,7,28,2023,12,52,42,386,2406,1078,3064,300,-1065,151,
1976,7,28,2023,12,52,42,396,2442,911,3083,412,-1077,122,
1977,7,28,2023,12,52,42,406,2483,819,3103,425,-1097,25,
1978,7,28,2023,12,52,42,416,2498,773,3067,427,-1125,-136,
1979,7,28,2023,12,52,42,426,2487,1110,2887,482,-1168,-292,
1980,7,28,2023,12,52,42,436,2515,1389,2741,458,-1141,-330,
1981,7,28,2023,12,52,42,446,2633,1395,2715,415,-1032,-267,
1982,7,28,2023,12,52,42,456,2610,1521,2688,394,-911,-194,
1983,7,28,2023,12,52,42,466,2543,1678,2698,357,-803,-78,
1984,7,28,2023,12,52,42,476,2472,1852,2747,260,-711,89,
1985,7,28,2023,12,52,42,486,2556,1817,2820,122,-677,307,
1986,7,28,2023,12,52,42,496,2584,1612,2945,-2,-694,511,
1987,7,28,2023,12,52,42,506,2587,1563,2996,-56,-779,672,
1988,7,28,2023,12,52,42,516,2544,1353,3105,-59,-931,824,
1989,7,28,2023,12,52,42,526,2628,1001,3242,20,-1135,887,
1990,7,28,2023,12,52,42,536,2481,1100,3416,215,-1418,859,
1991,7,28,2023,12,52,42,546,2498,1093,3607,391,-1789,861,
1992,7,28,2023,12,52,42,556,2500,1111,3725,518,-2224,889,
1993,7,28,2023,12,52,42,566,2455,1085,3883,558,-2700,914,
1994,7,28,2023,12,52,42,576,2457,863,3837,606,-3222,921,
1995,7,28,2023,12,52,42,586,2473,935,3736,747,-3797,899,
1996,7,28,2023,12,52,42,596,2462,894,3842,812,-4471,875,
1997,7,28,2023,12,52,42,606,2520,903,3959,880,-5309,839,
1998,7,28,2023,12,52,42,616,2514,981,3988,850,-6291,831,
1999,7,28,2023,12,52,42,626,2675,1379,3904,646,-7300,890,
2000,7,28,2023,12,52,42,636,2968,1575,3999,468,-8223,1040,
2001,7,28,2023,12,52,42,646,3031,1403,3881,679,-8937,1134,
2002,7,28,2023,12,52,42,656,3604,1907,3488,1133,-9703,1301,
2003,7,28,2023,12,52,42,666,4740,3361,3837,1363,-10228,1665,
2004,7,28,2023,12,52,42,676,5351,2896,3892,1063,-9931,2131,
2005,7,28,2023,12,52,42,686,7054,2852,3105,1133,-9579,2536,
2006,7,28,2023,12,52,42,696,10099,3911,2968,1724,-8752,2593,
2007,7,28,2023,12,52,42,706,9933,5379,2320,1193,-6954,3627,
2008,7,28,2023,12,52,42,716,9612,-2251,823,73,-5874,4597,
2009,7,28,2023,12,52,42,726,12266,-2799,-603,2989,-6235,4821,
2010,7,28,2023,12,52,42,736,18308,886,-405,4891,-5705,5742,
2011,7,28,2023,12,52,42,746,20434,4263,1313,3442,-2881,6229,
2012,7,28,2023,12,52,42,756,13325,2642,1651,866,1184,5712,
2013,7,28,2023,12,52,42,766,10023,460,2552,-647,1504,5849,
2014,7,28,2023,12,52,42,776,8127,-305,2957,-84,107,5685,
2015,7,28,2023,12,52,42,786,7659,1161,3414,1195,-1285,5135,
2016,7,28,2023,12,52,42,796,6750,2904,3860,1366,-1872,4714,
2017,7,28,2023,12,52,42,806,5307,3323,4217,202,-1805,4496,
2018,7,28,2023,12,52,42,816,3945,2729,4547,-1210,-1470,4121,
2019,7,28,2023,12,52,42,826,2346,2290,4552,-1931,-884,3435,
2020,7,28,2023,12,52,42,836,589,2344,4341,-2110,-148,2670,
2021,7,28,2023,12,52,42,846,-617,2365,4005,-2192,534,2004,
2022,7,28,2023,12,52,42,856,-1451,2106,3633,-2187,1214,1257,
2023,7,28,2023,12,52,42,866,-2315,1995,3295,-2013,1884,333,
2024,7,28,2023,12,52,42,876,-2622,2051,3045,-1773,2362,-582,
2025,7,28,2023,12,52,42,886,-2687,2118,2700,-1589,2846,-1438,
2026,7,28,2023,12,52,42,896,-3354,2095,2280,-1500,3375,-2158,
2027,7,28,2023,12,52,42,906,-3786,1885,2021,-1375,3626,-2619,
2028,7,28,2023,12,52,42,916,-3464,1702,2003,-1046,3722,-2912,
2029,7,28,2023,12,52,42,926,-3233,1896,2077,-619,4091,-3208,
2030,7,28,2023,12,52,42,936,-2967,1989,2153,-355,4747,-3411,
2031,7,28,2023,12,52,42,946,-3016,1744,1981,-209,5623,-3587,
2032,7,28,2023,12,52,42,956,-3264,1526,1770,3,6383,-3692,
2033,7,28,2023,12,52,42,966,-2969,1456,1786,314,6804,-3705,
2034,7,28,2023,12,52,42,976,-2047,1580,1968,636,7172,-3727,
2035,7,28,2023,12,52,42,986,-1479,1553,1962,849,7811,-3878,
2036,7,28,2023,12,52,42,996,-1339,1461,1815,972,8443,-4092,
2037,7,28,2023,12,52,43,6,-890,1335,1764,1046,8787,-4310,
2038,7,28,2023,12,52,43,16,-151,1307,1815,1055,8948,-4563,
2039,7,28,2023,12,52,43,26,723,1541,1865,971,9103,-4822,
2040,7,28,2023,12,52,43,36,1649,1595,1935,705,9307,-5097,
2041,7,28,2023,12,52,43,56,2994,836,1542,199,9254,-6141,
2042,7,28,2023,12,52,43,66,4006,415,1100,181,8767,-6497,
2043,7,28,2023,12,52,43,76,5449,138,536,254,8075,-6362,
2044,7,28,2023,12,52,43,86,7168,-234,168,441,7273,-5638,
2045,7,28,2023,12,52,43,96,9128,-231,-150,713,6631,-4768,
2046,7,28,2023,12,52,43,106,10207,-15,-985,560,6347,-3967,
2047,7,28,2023,12,52,43,116,10599,-326,-1950,66,5836,-2959,
2048,7,28,2023,12,52,43,126,11460,-355,-2521,-209,4732,-1860,
2049,7,28,2023,12,52,43,136,12390,44,-2758,-299,3438,-1032,
2050,7,28,2023,12,52,43,146,12701,20,-2680,-367,2269,-638,
2051,7,28,2023,12,52,43,156,12202,-175,-2711,-116,1399,-659,
2052,7,28,2023,12,52,43,166,8510,190,-2943,189,788,-752,
2053,7,28,2023,12,52,43,176,6174,-1795,-396,16,-1670,139,
2054,7,28,2023,12,52,43,186,10296,2514,12830,-152,-5474,697,
2055,7,28,2023,12,52,43,196,7774,3419,11437,-727,-2920,1482,
2056,7,28,2023,12,52,43,206,-4196,1268,-521,-194,-411,1996,
2057,7,28,2023,12,52,43,216,198,3955,553,-364,-3067,1676,
2058,7,28,2023,12,52,43,226,10302,972,5161,-1394,-2413,1580,
2059,7,28,2023,12,52,43,236,2219,-2190,3706,-593,-339,1203,
2060,7,28,2023,12,52,43,246,1959,2515,2751,48,-252,1048,
2061,7,28,2023,12,52,43,256,2860,2272,3018,-352,-186,792,
2062,7,28,2023,12,52,43,266,2169,1377,3100,-919,185,437,
2063,7,28,2023,12,52,43,276,2351,1307,3368,-1338,360,246,
2064,7,28,2023,12,52,43,286,4506,1333,3438,-1361,278,143,
2065,7,28,2023,12,52,43,296,3455,-83,3664,-966,272,65,
2066,7,28,2023,12,52,43,306,2385,967,3355,-433,273,-70,
2067,7,28,2023,12,52,43,316,2437,1432,3346,-275,181,-85,
2068,7,28,2023,12,52,43,326,2444,1161,3328,-178,125,65,
2069,7,28,2023,12,52,43,336,2470,936,3301,19,96,145,
2070,7,28,2023,12,52,43,346,2395,1070,3307,230,101,159,
2071,7,28,2023,12,52,43,356,2359,979,3345,368,79,155,
2072,7,28,2023,12,52,43,366,2357,907,3312,433,13,75,
2073,7,28,2023,12,52,43,376,2298,1035,3260,450,-45,-39,
2074,7,28,2023,12,52,43,386,2293,1031,3324,406,-93,-125,
2075,7,28,2023,12,52,43,396,2344,987,3308,373,-156,-198,
2076,7,28,2023,12,52,43,406,2323,1097,3186,350,-179,-272,
2077,7,28,2023,12,52,43,416,2263,1150,3178,271,-180,-343,
2078,7,28,2023,12,52,43,426,2247,1190,3214,150,-188,-396,
2079,7,28,2023,12,52,43,436,2294,1200,3211,38,-211,-418,
2080,7,28,2023,12,52,43,446,2268,1166,3243,-24,-227,-422,
2081,7,28,2023,12,52,43,456,2292,1155,3257,-6,-260,-430,
2082,7,28,2023,12,52,43,466,2270,1300,3170,50,-286,-424,
2083,7,28,2023,12,52,43,476,2220,1472,3077,72,-277,-368,
2084,7,28,2023,12,52,43,486,2297,1391,3093,45,-246,-281,
2085,7,28,2023,12,52,43,496,2257,1256,3126,39,-200,-210,
2086,7,28,2023,12,52,43,506,2084,1378,3156,54,-181,-155,
2087,7,28,2023,12,52,43,516,2086,1444,3199,19,-206,-74,
2088,7,28,2023,12,52,43,526,2040,1682,3126,-23,-250,22,
2089,7,28,2023,12,52,43,536,2213,1486,3055,-93,-266,144,
2090,7,28,2023,12,52,43,546,2282,1374,3012,-127,-238,196,
2091,7,28,2023,12,52,43,556,2385,1194,3050,-132,-185,193,
2092,7,28,2023,12,52,43,566,2329,1161,3105,-99,-132,168,
2093,7,28,2023,12,52,43,576,2300,1028,3210,-76,-107,150,
2094,7,28,2023,12,52,43,586,2341,1101,3161,-21,-113,112,
2095,7,28,2023,12,52,43,596,2353,1282,3118,13,-104,85,
2096,7,28,2023,12,52,43,606,2393,1219,3110,-11,-74,107,
2097,7,28,2023,12,52,43,616,2318,1200,3117,-42,-41,134,
2098,7,28,2023,12,52,43,626,2271,1360,3133,-74,-30,174,
2099,7,28,2023,12,52,43,636,2329,1295,3159,-113,-27,225,
2100,7,28,2023,12,52,43,646,2379,1099,3151,-127,-26,245,
2101,7,28,2023,12,52,43,656,2389,1048,3134,-109,-10,222,
2102,7,28,2023,12,52,43,666,2384,980,3117,-68,16,178,
2103,7,28,2023,12,52,43,676,2358,1028,3138,-7,36,108,
2104,7,28,2023,12,52,43,686,2316,1165,3186,36,40,52,
2105,7,28,2023,12,52,43,696,2332,1197,3205,53,15,24,
2106,7,28,2023,12,52,43,706,2321,1200,3209,68,-14,3,
2107,7,28,2023,12,52,43,716,2308,1318,3170,74,-47,-10,
2108,7,28,2023,12,52,43,726,2309,1431,3149,43,-67,11,
2109,7,28,2023,12,52,43,736,2327,1351,3160,-10,-77,66,
2110,7,28,2023,12,52,43,746,2369,1243,3130,-52,-80,95,
2111,7,28,2023,12,52,43,756,2396,1210,3127,-68,-70,94,
2112,7,28,2023,12,52,43,766,2431,1167,3087,-80,-45,80,
2113,7,28,2023,12,52,43,776,2395,1143,3072,-94,8,62,
2114,7,28,2023,12,52,43,786,2317,1199,3131,-113,65,51,
2115,7,28,2023,12,52,43,796,2290,1388,3159,-132,74,53,
2116,7,28,2023,12,52,43,806,2267,1479,3169,-175,47,99,
2117,7,28,2023,12,52,43,816,2296,1392,3194,-216,7,173,
2118,7,28,2023,12,52,43,826,2312,1336,3194,-247,-38,219,
2119,7,28,2023,12,52,43,836,2327,1131,3222,-267,-80,252,
2120,7,28,2023,12,52,43,846,2338,986,3246,-240,-110,242,
2121,7,28,2023,12,52,43,856,2327,1058,3215,-178,-146,197,
2122,7,28,2023,12,52,43,866,2364,1048,3134,-133,-159,162,
2123,7,28,2023,12,52,43,876,2339,1056,3109,-88,-141,126,
2124,7,28,2023,12,52,43,886,2351,1071,3111,-77,-114,98,
2125,7,28,2023,12,52,43,896,2351,1052,3126,-87,-90,68,
2126,7,28,2023,12,52,43,916,2354,1041,3182,-56,-77,22,
2127,7,28,2023,12,52,43,926,2375,1041,3182,-23,-91,-1,
2128,7,28,2023,12,52,43,936,2361,1103,3160,7,-105,-23,
2129,7,28,2023,12,52,43,946,2379,1124,3142,22,-112,-26,
2130,7,28,2023,12,52,43,956,2396,1114,3114,33,-109,-23,
2131,7,28,2023,12,52,43,966,2401,1120,3083,41,-89,-32,
2132,7,28,2023,12,52,43,976,2397,1141,3082,28,-49,-35,
2133,7,28,2023,12,52,43,986,2405,1164,3085,-2,-7,-34,
2134,7,28,2023,12,52,43,996,2410,1162,3097,-42,33,-30,
2135,7,28,2023,12,52,44,6,2411,1123,3091,-66,81,-26,
2136,7,28,2023,12,52,44,16,2391,1139,3080,-79,125,-24,
2137,7,28,2023,12,52,44,26,2318,1182,3111,-93,168,-15,
2138,7,28,2023,12,52,44,36,2300,1179,3164,-103,179,-2,
2139,7,28,2023,12,52,44,46,2319,1140,3204,-96,160,7,
2140,7,28,2023,12,52,44,56,2304,1109,3254,-78,122,11,
2141,7,28,2023,12,52,44,66,2351,1062,3255,-48,64,0,
2142,7,28,2023,12,52,44,76,2353,990,3249,-2,10,-28,
2143,7,28,2023,12,52,44,86,2358,973,3222,57,-31,-79,
2144,7,28,2023,12,52,44,96,2361,1039,3194,122,-59,-139,
2145,7,28,2023,12,52,44,106,2375,1127,3155,155,-74,-174,
2146,7,28,2023,12,52,44,116,2387,1236,3111,144,-60,-164,
2147,7,28,2023,12,52,44,126,2379,1276,3084,90,-20,-116,
2148,7,28,2023,12,52,44,136,2385,1258,3043,28,42,-72,
2149,7,28,2023,12,52,44,146,2328,1273,3048,-23,107,-37,
2150,7,28,2023,12,52,44,156,2277,1251,3097,-62,154,-1,
2151,7,28,2023,12,52,44,166,2287,1185,3171,-75,163,25,
2152,7,28,2023,12,52,44,176,2309,1162,3217,-68,143,32,
2153,7,28,2023,12,52,44,186,2344,1079,3247,-54,111,32,
2154,7,28,2023,12,52,44,196,2358,1058,3225,-24,76,10,
2155,7,28,2023,12,52,44,206,2346,1065,3203,10,49,-23,
2156,7,28,2023,12,52,44,216,2342,1104,3180,32,35,-46,
2157,7,28,2023,12,52,44,226,2352,1107,3164,51,35,-66,
2158,7,28,2023,12,52,44,236,2354,1120,3156,65,37,-92,
2159,7,28,2023,12,52,44,246,2353,1148,3143,63,47,-114,
2160,7,28,2023,12,52,44,256,2317,1216,3122,48,66,-116,
2161,7,28,2023,12,52,44,266,2271,1272,3146,22,86,-85,
2162,7,28,2023,12,52,44,276,2278,1250,3190,-9,93,-44,
2163,7,28,2023,12,52,44,286,2328,1160,3191,-22,79,-15,
2164,7,28,2023,12,52,44,296,2317,1137,3193,-20,65,-11,
2165,7,28,2023,12,52,44,306,2332,1147,3197,-14,54,-9,
2166,7,28,2023,12,52,44,316,2330,1136,3206,-2,43,-11,
2167,7,28,2023,12,52,44,326,2321,1127,3199,9,32,-19,
2168,7,28,2023,12,52,44,336,2323,1145,3186,21,26,-28,
2169,7,28,2023,12,52,44,346,2327,1156,3164,26,22,-31,
2170,7,28,2023,12,52,44,356,2309,1159,3168,31,28,-31,
2171,7,28,2023,12,52,44,366,2300,1169,3181,30,31,-34,
2172,7,28,2023,12,52,44,376,2297,1167,3183,27,30,-30,
2173,7,28,2023,12,52,44,386,2280,1174,3192,23,26,-29,
2174,7,28,2023,12,52,44,396,2290,1186,3208,27,11,-31,
2175,7,28,2023,12,52,44,406,2304,1173,3202,29,-6,-20,
2176,7,28,2023,12,52,44,416,2302,1176,3188,25,-23,-15,
2177,7,28,2023,12,52,44,426,2309,1184,3184,22,-30,-6,
2178,7,28,2023,12,52,44,436,2311,1161,3163,22,-31,-1,
2179,7,28,2023,12,52,44,446,2317,1152,3172,15,-30,-6,
2180,7,28,2023,12,52,44,456,2328,1160,3160,10,-25,-13,
2181,7,28,2023,12,52,44,466,2333,1161,3164,11,-14,-15,
2182,7,28,2023,12,52,44,476,2320,1162,3164,9,-4,-14,
2183,7,28,2023,12,52,44,486,2309,1190,3155,9,5,-13,
2184,7,28,2023,12,52,44,496,2296,1213,3159,2,13,-10,
2185,7,28,2023,12,52,44,506,2283,1198,3185,-7,15,3,
2186,7,28,2023,12,52,44,516,2299,1165,3197,-8,8,14,
2187,7,28,2023,12,52,44,526,2315,1150,3193,-4,-6,11,
2188,7,28,2023,12,52,44,536,2314,1151,3195,4,-18,6,
2189,7,28,2023,12,52,44,546,2316,1164,3183,13,-23,-1,
2190,7,28,2023,12,52,44,556,2313,1165,3173,18,-27,-5,
2191,7,28,2023,12,52,44,566,2321,1177,3152,17,-20,-8,
2192,7,28,2023,12,52,44,576,2317,1176,3156,13,-17,-5,
2193,7,28,2023,12,52,44,586,2317,1176,3165,8,-9,-6,
2194,7,28,2023,12,52,44,596,2319,1182,3164,6,3,-3,
2195,7,28,2023,12,52,44,606,2304,1178,3171,3,8,-2,
2196,7,28,2023,12,52,44,616,2305,1176,3173,4,8,-1,
2197,7,28,2023,12,52,44,626,2307,1190,3184,0,8,3,
2198,7,28,2023,12,52,44,636,2301,1185,3186,-5,5,4,
2199,7,28,2023,12,52,44,646,2302,1174,3181,-7,-2,8,
2200,7,28,2023,12,52,44,656,2311,1166,3177,-4,-5,9,
2201,7,28,2023,12,52,44,666,2317,1178,3176,-5,-6,6,
2202,7,28,2023,12,52,44,676,2315,1178,3177,-7,-4,7,
2203,7,28,2023,12,52,44,686,2315,1168,3170,-9,-5,6,
2204,7,28,2023,12,52,44,696,2314,1169,3158,-10,-2,6,
2205,7,28,2023,12,52,44,706,2309,1185,3172,-11,11,5,
2206,7,28,2023,12,52,44,716,2312,1176,3171,-12,14,7,
2207,7,28,2023,12,52,44,726,2314,1154,3170,-10,17,7,
2208,7,28,2023,12,52,44,736,2313,1175,3171,-10,19,5,
2209,7,28,2023,12,52,44,746,2312,1176,3176,-13,20,6,
2210,7,28,2023,12,52,44,756,2303,1179,3169,-12,22,9,
2211,7,28,2023,12,52,44,776,2296,1185,3192,-17,19,16,
2212,7,28,2023,12,52,44,786,2294,1165,3199,-13,9,22,
2213,7,28,2023,12,52,44,796,2301,1167,3195,-12,-4,19,
2214,7,28,2023,12,52,44,806,2305,1150,3193,-8,-13,17,
2215,7,28,2023,12,52,44,816,2319,1148,3196,0,-19,13,
2216,7,28,2023,12,52,44,826,2311,1152,3187,4,-21,8,
2217,7,28,2023,12,52,44,836,2308,1165,3175,8,-21,6,
2218,7,28,2023,12,52,44,846,2295,1179,3182,7,-18,3,
2219,7,28,2023,12,52,44,856,2306,1171,3175,7,-25,4,
2220,7,28,2023,12,52,44,866,2308,1158,3187,13,-31,8,
2221,7,28,2023,12,52,44,876,2301,1157,3187,17,-33,5,
2222,7,28,2023,12,52,44,886,2308,1165,3181,23,-36,-4,
2223,7,28,2023,12,52,44,896,2320,1165,3185,24,-40,-8,
