Packet #, Month, Day, Year, Hour, Minute, Second, MS, ACC X, ACC Y, ACC Z, GYR X, GYR Y, GYR Z
1,7,27,2023,12,18,44,485,-13458,-2093,5308,-3200,2686,2849,
2,7,27,2023,12,18,44,495,-9621,-1051,3103,-2335,158,3867,
3,7,27,2023,12,18,44,505,-8367,-804,2779,-1349,-126,5219,
4,7,27,2023,12,18,44,515,-7540,-1103,3350,-735,292,6063,
5,7,27,2023,12,18,44,525,-6789,-1777,4060,-213,631,6375,
6,7,27,2023,12,18,44,535,-6331,-2648,4964,624,753,6486,
7,7,27,2023,12,18,44,545,-6093,-3375,5935,1741,410,6314,
8,7,27,2023,12,18,44,555,-5262,-3992,6345,2931,-554,5730,
9,7,27,2023,12,18,44,565,-3456,-4200,5660,4110,-1825,4864,
10,7,27,2023,12,18,44,575,-1596,-3945,4478,5058,-2808,3937,
11,7,27,2023,12,18,44,585,-316,-3628,3410,5359,-3360,2915,
12,7,27,2023,12,18,44,595,402,-3668,2716,4935,-3686,1648,
13,7,27,2023,12,18,44,605,834,-4033,2276,4200,-3960,201,
14,7,27,2023,12,18,44,615,1154,-4193,2116,3693,-4161,-1180,
15,7,27,2023,12,18,44,625,1077,-3760,2181,3403,-4378,-2338,
16,7,27,2023,12,18,44,635,1284,-3100,2027,2932,-4786,-3273,
17,7,27,2023,12,18,44,645,1687,-2387,1710,2257,-5224,-3872,
18,7,27,2023,12,18,44,655,1604,-1804,1615,1463,-5610,-4114,
19,7,27,2023,12,18,44,665,1518,-1424,1452,724,-6084,-4083,
20,7,27,2023,12,18,44,675,1409,-907,1352,117,-6550,-3817,
21,7,27,2023,12,18,44,685,1058,-415,1385,-553,-7034,-3470,
22,7,27,2023,12,18,44,695,1001,-241,1012,-1233,-7583,-3160,
23,7,27,2023,12,18,44,705,742,-114,541,-1689,-7909,-2801,
24,7,27,2023,12,18,44,715,41,-32,260,-1957,-8012,-2470,
25,7,27,2023,12,18,44,725,-618,-116,-147,-2069,-8027,-2345,
26,7,27,2023,12,18,44,735,-1178,59,-740,-1999,-7856,-2477,
27,7,27,2023,12,18,44,745,-1792,726,-1410,-1910,-7432,-2844,
28,7,27,2023,12,18,44,755,-2866,1369,-1755,-1978,-6786,-3216,
29,7,27,2023,12,18,44,765,-4699,1671,-1742,-2063,-6184,-3309,
30,7,27,2023,12,18,44,775,-6813,1956,-2106,-2005,-5868,-3071,
31,7,27,2023,12,18,44,785,-8142,2161,-3584,-1801,-5663,-2602,
32,7,27,2023,12,18,44,795,-8723,2276,-5426,-1446,-4974,-1987,
33,7,27,2023,12,18,44,805,-8953,2179,-6596,-1024,-3632,-1284,
34,7,27,2023,12,18,44,815,-8600,1808,-7233,-626,-1957,-631,
35,7,27,2023,12,18,44,825,-7353,1462,-7936,-364,-101,-92,
36,7,27,2023,12,18,44,835,-6439,581,-7529,-300,1992,363,
37,7,27,2023,12,18,44,845,-9757,-1685,-567,-605,3751,403,
38,7,27,2023,12,18,44,855,-13628,2198,11976,-221,-452,596,
39,7,27,2023,12,18,44,865,-963,-405,-24,373,-7420,1151,
40,7,27,2023,12,18,44,875,-242,-3723,6472,-275,-6047,453,
41,7,27,2023,12,18,44,885,-1492,367,5080,1152,-6485,388,
42,7,27,2023,12,18,44,895,-2122,-1144,3014,1171,-5859,731,
43,7,27,2023,12,18,44,905,-1353,330,3921,920,-4146,888,
44,7,27,2023,12,18,44,915,-1711,521,3931,608,-2984,673,
45,7,27,2023,12,18,44,925,-2372,-268,3593,397,-2286,106,
46,7,27,2023,12,18,44,935,-2230,-363,3453,246,-1871,-354,
47,7,27,2023,12,18,44,945,-1981,-1239,3166,139,-1719,-473,
48,7,27,2023,12,18,44,955,-2181,-1247,3265,189,-1800,-292,
49,7,27,2023,12,18,44,965,-2214,-763,3597,228,-1894,-110,
50,7,27,2023,12,18,44,975,-1725,-547,3813,178,-1749,-75,
51,7,27,2023,12,18,44,985,-1445,-608,3906,94,-1394,-126,
52,7,27,2023,12,18,44,995,-1575,-683,3901,29,-967,-175,
53,7,27,2023,12,18,45,5,-1768,-813,3919,-46,-567,-176,
54,7,27,2023,12,18,45,15,-1659,-790,3841,-103,-249,-144,
55,7,27,2023,12,18,45,25,-1493,-752,3695,-154,57,-110,
56,7,27,2023,12,18,45,35,-1724,-697,3762,-197,361,-100,
57,7,27,2023,12,18,45,45,-1835,-747,3743,-253,610,-90,
58,7,27,2023,12,18,45,55,-1720,-819,3641,-296,812,-49,
59,7,27,2023,12,18,45,65,-1608,-846,3571,-301,1011,13,
60,7,27,2023,12,18,45,75,-1767,-829,3576,-284,1220,66,
61,7,27,2023,12,18,45,85,-2027,-766,3542,-264,1394,95,
62,7,27,2023,12,18,45,95,-1866,-805,3428,-283,1535,97,
63,7,27,2023,12,18,45,105,-1777,-826,3436,-303,1685,115,
64,7,27,2023,12,18,45,115,-1961,-821,3458,-306,1834,162,
65,7,27,2023,12,18,45,125,-2080,-799,3396,-299,1962,193,
66,7,27,2023,12,18,45,135,-2074,-794,3292,-283,2014,201,
67,7,27,2023,12,18,45,145,-2165,-716,3180,-268,1982,206,
68,7,27,2023,12,18,45,155,-2353,-687,3146,-283,1865,190,
69,7,27,2023,12,18,45,165,-2448,-687,3120,-306,1642,137,
70,7,27,2023,12,18,45,175,-2309,-735,3146,-324,1418,73,
71,7,27,2023,12,18,45,185,-2262,-804,3141,-317,1242,41,
72,7,27,2023,12,18,45,195,-2408,-835,3096,-293,1043,57,
73,7,27,2023,12,18,45,205,-2583,-845,2988,-276,776,95,
74,7,27,2023,12,18,45,215,-2471,-648,3039,-281,480,105,
75,7,27,2023,12,18,45,225,-2281,-608,3171,-303,267,40,
76,7,27,2023,12,18,45,235,-2282,-701,3272,-294,173,-60,
77,7,27,2023,12,18,45,245,-2237,-906,3260,-239,200,-120,
78,7,27,2023,12,18,45,255,-2022,-1097,3218,-183,298,-75,
79,7,27,2023,12,18,45,265,-1969,-997,3274,-165,445,68,
80,7,27,2023,12,18,45,275,-2272,-801,3304,-139,605,182,
81,7,27,2023,12,18,45,285,-2231,-718,3267,-130,776,185,
82,7,27,2023,12,18,45,295,-1991,-855,3393,-145,1037,172,
83,7,27,2023,12,18,45,305,-2079,-905,3376,-137,1393,254,
84,7,27,2023,12,18,45,315,-2137,-770,3414,-142,1877,375,
85,7,27,2023,12,18,45,325,-2145,-678,3524,-213,2472,471,
86,7,27,2023,12,18,45,345,-2033,-372,3633,-481,4147,567,
87,7,27,2023,12,18,45,355,-2296,-467,3653,-710,5234,503,
88,7,27,2023,12,18,45,365,-2132,-460,3652,-900,6335,421,
89,7,27,2023,12,18,45,375,-2284,-538,3767,-1138,7487,339,
90,7,27,2023,12,18,45,385,-2661,-721,3425,-1362,8555,277,
91,7,27,2023,12,18,45,395,-2925,-667,3367,-1533,9504,160,
92,7,27,2023,12,18,45,405,-3257,-907,3659,-1718,10343,-57,
93,7,27,2023,12,18,45,415,-3789,-1444,3818,-1835,10907,-129,
94,7,27,2023,12,18,45,425,-4574,-2142,3566,-1981,11059,83,
95,7,27,2023,12,18,45,435,-5324,-2598,3490,-1832,10845,475,
96,7,27,2023,12,18,45,445,-5976,-2395,3388,-1062,10300,987,
97,7,27,2023,12,18,45,455,-7461,-3640,3821,426,9629,1775,
98,7,27,2023,12,18,45,465,-8497,-2596,4750,1376,8269,2065,
99,7,27,2023,12,18,45,475,-9300,-2835,3520,1006,6134,2307,
100,7,27,2023,12,18,45,485,-7782,957,-1631,176,5164,3050,
101,7,27,2023,12,18,45,495,-12124,3299,-3609,-2081,6307,4565,
102,7,27,2023,12,18,45,505,-20206,-1578,4997,-5538,7000,5236,
103,7,27,2023,12,18,45,515,-15485,-4213,4137,-6493,2220,4916,
104,7,27,2023,12,18,45,525,-10669,-4138,2241,-5103,-642,5240,
105,7,27,2023,12,18,45,535,-7917,-3580,1587,-2875,-584,5564,
106,7,27,2023,12,18,45,545,-6734,-3820,2029,-1168,431,5280,
107,7,27,2023,12,18,45,555,-5846,-4409,2607,359,1222,4444,
108,7,27,2023,12,18,45,565,-5193,-4308,3584,1979,1744,3360,
109,7,27,2023,12,18,45,575,-4583,-3686,4657,3209,1718,2087,
110,7,27,2023,12,18,45,585,-3505,-2933,5014,3831,1068,758,
111,7,27,2023,12,18,45,595,-2369,-2380,4868,4006,163,-340,
112,7,27,2023,12,18,45,605,-1538,-2191,4659,3988,-801,-1096,
113,7,27,2023,12,18,45,615,-949,-1911,4519,3977,-1794,-1543,
114,7,27,2023,12,18,45,625,-292,-1339,4033,3787,-2912,-1828,
115,7,27,2023,12,18,45,635,814,-800,3173,3249,-3969,-2032,
116,7,27,2023,12,18,45,645,1676,-395,2407,2442,-4641,-2122,
117,7,27,2023,12,18,45,655,2135,-208,1791,1508,-4997,-2147,
118,7,27,2023,12,18,45,665,2185,-268,1535,711,-5144,-2060,
119,7,27,2023,12,18,45,675,1798,-569,1627,194,-5276,-1871,
120,7,27,2023,12,18,45,685,1480,-764,1698,19,-5586,-1677,
121,7,27,2023,12,18,45,695,1313,-593,1624,8,-5999,-1561,
122,7,27,2023,12,18,45,705,1322,-224,1289,-160,-6397,-1525,
123,7,27,2023,12,18,45,715,1313,-205,788,-532,-6667,-1501,
124,7,27,2023,12,18,45,725,1090,-618,434,-791,-6742,-1474,
125,7,27,2023,12,18,45,735,444,-1044,474,-708,-6682,-1561,
126,7,27,2023,12,18,45,745,-294,-1181,694,-445,-6711,-1911,
127,7,27,2023,12,18,45,755,-845,-906,745,-294,-6908,-2561,
128,7,27,2023,12,18,45,765,-1197,-336,564,-370,-7162,-3301,
129,7,27,2023,12,18,45,775,-1484,339,110,-646,-7351,-3846,
130,7,27,2023,12,18,45,785,-2183,712,-434,-930,-7369,-4011,
131,7,27,2023,12,18,45,795,-3400,971,-891,-1008,-7200,-3777,
132,7,27,2023,12,18,45,805,-4688,1424,-1663,-953,-6950,-3317,
133,7,27,2023,12,18,45,815,-5819,1541,-2854,-931,-6540,-2718,
134,7,27,2023,12,18,45,825,-6669,1439,-3797,-767,-5783,-2019,
135,7,27,2023,12,18,45,835,-7303,1651,-4346,-481,-4764,-1350,
136,7,27,2023,12,18,45,845,-7502,1893,-4996,-401,-3701,-747,
137,7,27,2023,12,18,45,855,-6530,1998,-6566,-522,-2476,-136,
138,7,27,2023,12,18,45,865,-5372,1706,-7572,-620,-574,528,
139,7,27,2023,12,18,45,875,-5076,897,-7077,-542,1635,940,
140,7,27,2023,12,18,45,885,-3428,659,-6740,-327,3400,753,
141,7,27,2023,12,18,45,895,-19233,-3432,13611,959,4212,919,
142,7,27,2023,12,18,45,905,-1430,9295,-1424,2320,-6326,1219,
143,7,27,2023,12,18,45,915,-3048,-6330,3623,-1205,-8525,1030,
144,7,27,2023,12,18,45,925,1136,1388,8204,302,-6767,-515,
145,7,27,2023,12,18,45,935,-1171,-1284,4332,678,-6847,-201,
146,7,27,2023,12,18,45,945,-1974,-1382,3615,652,-5054,-19,
147,7,27,2023,12,18,45,955,-559,-113,4863,418,-2724,368,
148,7,27,2023,12,18,45,965,-1580,-1144,3939,211,-1194,492,
149,7,27,2023,12,18,45,975,-2297,-620,3361,199,-350,408,
150,7,27,2023,12,18,45,985,-2744,-645,2999,168,-200,189,
151,7,27,2023,12,18,45,995,-2948,-721,2695,120,-511,-2,
152,7,27,2023,12,18,46,5,-2516,-902,2911,104,-975,-145,
153,7,27,2023,12,18,46,15,-2618,-1000,3064,154,-1435,-167,
154,7,27,2023,12,18,46,25,-2333,-906,3231,220,-1720,-93,
155,7,27,2023,12,18,46,35,-1897,-858,3496,292,-1773,-5,
156,7,27,2023,12,18,46,45,-1962,-748,3710,323,-1610,49,
157,7,27,2023,12,18,46,55,-2004,-725,3864,279,-1287,35,
158,7,27,2023,12,18,46,65,-1768,-821,3882,222,-882,-4,
159,7,27,2023,12,18,46,75,-1585,-831,3762,176,-442,10,
160,7,27,2023,12,18,46,85,-1815,-829,3690,134,-49,59,
161,7,27,2023,12,18,46,95,-2144,-783,3634,118,186,105,
162,7,27,2023,12,18,46,105,-2020,-684,3569,80,312,116,
163,7,27,2023,12,18,46,115,-1798,-733,3526,9,466,100,
164,7,27,2023,12,18,46,125,-1905,-751,3613,-60,684,93,
165,7,27,2023,12,18,46,135,-2017,-741,3639,-137,944,86,
166,7,27,2023,12,18,46,145,-1827,-743,3582,-197,1240,81,
167,7,27,2023,12,18,46,155,-1755,-811,3499,-232,1594,88,
168,7,27,2023,12,18,46,165,-1959,-863,3416,-265,1937,123,
169,7,27,2023,12,18,46,175,-2223,-826,3373,-299,2178,168,
170,7,27,2023,12,18,46,185,-2244,-842,3211,-315,2290,185,
171,7,27,2023,12,18,46,205,-2345,-845,3113,-303,2303,200,
172,7,27,2023,12,18,46,215,-2576,-826,3090,-297,2138,198,
173,7,27,2023,12,18,46,225,-2519,-794,2964,-282,1922,172,
174,7,27,2023,12,18,46,235,-2382,-823,2947,-269,1693,123,
175,7,27,2023,12,18,46,245,-2570,-830,2900,-252,1460,86,
176,7,27,2023,12,18,46,255,-2597,-950,2928,-237,1224,50,
177,7,27,2023,12,18,46,265,-2461,-966,2953,-205,1000,46,
178,7,27,2023,12,18,46,275,-2422,-945,2909,-148,811,117,
179,7,27,2023,12,18,46,285,-2657,-836,2873,-93,625,183,
180,7,27,2023,12,18,46,295,-2773,-751,2875,-64,391,187,
181,7,27,2023,12,18,46,305,-2562,-725,2876,-34,140,140,
182,7,27,2023,12,18,46,315,-2362,-780,2983,-10,-23,66,
183,7,27,2023,12,18,46,325,-2440,-966,3110,26,-53,26,
184,7,27,2023,12,18,46,335,-2425,-1132,3038,92,-51,95,
185,7,27,2023,12,18,46,345,-2341,-919,3043,135,-34,215,
186,7,27,2023,12,18,46,355,-2242,-821,3089,135,57,274,
187,7,27,2023,12,18,46,365,-2287,-812,3245,122,227,293,
188,7,27,2023,12,18,46,375,-2389,-746,3369,104,488,309,
189,7,27,2023,12,18,46,385,-2210,-695,3460,15,937,320,
190,7,27,2023,12,18,46,395,-2006,-709,3580,-115,1593,373,
191,7,27,2023,12,18,46,405,-2229,-642,3580,-209,2364,452,
192,7,27,2023,12,18,46,415,-2347,-588,3544,-325,3219,484,
193,7,27,2023,12,18,46,425,-2094,-615,3613,-504,4239,495,
194,7,27,2023,12,18,46,435,-2117,-580,3696,-721,5408,507,
195,7,27,2023,12,18,46,445,-2484,-600,3709,-957,6578,512,
196,7,27,2023,12,18,46,455,-2462,-698,3626,-1124,7691,536,
197,7,27,2023,12,18,46,465,-2659,-711,3482,-1281,8812,604,
198,7,27,2023,12,18,46,475,-3155,-869,3886,-1446,9856,655,
199,7,27,2023,12,18,46,485,-3651,-1541,4142,-1507,10611,680,
200,7,27,2023,12,18,46,495,-4304,-1701,4103,-1470,10958,806,
201,7,27,2023,12,18,46,505,-6264,-2168,4407,-1521,10884,959,
202,7,27,2023,12,18,46,515,-6759,-2864,3049,-1172,10302,1276,
203,7,27,2023,12,18,46,525,-9668,-3366,5948,-921,9544,1798,
204,7,27,2023,12,18,46,535,-7087,-2405,3194,-1212,7277,2381,
205,7,27,2023,12,18,46,545,-8000,1456,-2024,-2306,7097,3315,
206,7,27,2023,12,18,46,555,-11683,2893,-3095,-5722,8124,3983,
207,7,27,2023,12,18,46,565,-19293,-1648,998,-9065,8498,4685,
208,7,27,2023,12,18,46,575,-17050,-4792,3960,-9428,5749,4982,
209,7,27,2023,12,18,46,585,-12025,-5190,2674,-7252,2340,5301,
210,7,27,2023,12,18,46,595,-8880,-3868,1852,-4348,1698,5398,
211,7,27,2023,12,18,46,605,-7172,-3911,2131,-1956,2334,4902,
212,7,27,2023,12,18,46,615,-6244,-4100,2822,72,3126,3962,
213,7,27,2023,12,18,46,625,-5785,-3721,3985,1840,3567,2838,
214,7,27,2023,12,18,46,635,-5213,-3011,4956,2915,3278,1561,
215,7,27,2023,12,18,46,645,-4488,-2199,5545,3228,2379,273,
216,7,27,2023,12,18,46,655,-3508,-1496,5446,2940,1057,-850,
217,7,27,2023,12,18,46,665,-2236,-1259,4714,2454,-409,-1596,
218,7,27,2023,12,18,46,675,-1093,-1253,3926,2328,-1548,-1878,
219,7,27,2023,12,18,46,685,-437,-919,3361,2577,-2305,-1870,
220,7,27,2023,12,18,46,695,91,-343,2834,2727,-2921,-1830,
221,7,27,2023,12,18,46,705,729,140,2264,2459,-3437,-1813,
222,7,27,2023,12,18,46,715,1084,251,1897,1917,-3765,-1750,
223,7,27,2023,12,18,46,725,1248,75,1664,1394,-3971,-1651,
224,7,27,2023,12,18,46,735,1342,-153,1533,1116,-4123,-1539,
225,7,27,2023,12,18,46,745,1283,-229,1569,1041,-4264,-1435,
226,7,27,2023,12,18,46,755,1160,-159,1737,975,-4496,-1406,
227,7,27,2023,12,18,46,765,1150,-99,1836,796,-4838,-1444,
228,7,27,2023,12,18,46,775,1004,-91,1899,540,-5251,-1487,
229,7,27,2023,12,18,46,785,966,-90,1826,304,-5735,-1506,
230,7,27,2023,12,18,46,795,871,99,1783,67,-6184,-1477,
231,7,27,2023,12,18,46,805,709,264,1607,-260,-6624,-1440,
232,7,27,2023,12,18,46,815,608,263,1354,-581,-6981,-1318,
233,7,27,2023,12,18,46,825,260,156,1314,-775,-7204,-1049,
234,7,27,2023,12,18,46,835,-113,101,1470,-869,-7402,-721,
235,7,27,2023,12,18,46,845,-693,50,1930,-1039,-7672,-458,
236,7,27,2023,12,18,46,855,-1341,-258,2214,-1323,-8157,-366,
237,7,27,2023,12,18,46,865,-1563,-671,1733,-1457,-8764,-431,
238,7,27,2023,12,18,46,875,-1714,-670,972,-1323,-9031,-602,
239,7,27,2023,12,18,46,885,-2054,-138,397,-1228,-8841,-889,
240,7,27,2023,12,18,46,895,-2852,410,69,-1495,-8391,-1173,
241,7,27,2023,12,18,46,905,-4021,550,-289,-1946,-7871,-1278,
242,7,27,2023,12,18,46,915,-5301,569,-990,-2224,-7311,-1201,
243,7,27,2023,12,18,46,925,-6506,336,-1830,-2223,-6610,-1074,
244,7,27,2023,12,18,46,935,-7016,187,-2678,-1932,-5718,-1083,
245,7,27,2023,12,18,46,945,-7317,613,-3195,-1546,-4572,-1302,
246,7,27,2023,12,18,46,955,-7797,1116,-3662,-1394,-3379,-1559,
247,7,27,2023,12,18,46,965,-7772,1547,-4309,-1356,-2170,-1486,
248,7,27,2023,12,18,46,975,-8006,1863,-4298,-1277,-877,-1040,
249,7,27,2023,12,18,46,985,-7725,1808,-4657,-1135,156,-454,
250,7,27,2023,12,18,46,995,-6947,354,-5174,-914,1234,83,
251,7,27,2023,12,18,47,5,-25093,-6501,8667,2949,1902,2345,
252,7,27,2023,12,18,47,15,-9729,3270,3548,4785,-4052,3326,
253,7,27,2023,12,18,47,25,2988,1256,6066,151,-5978,1954,
254,7,27,2023,12,18,47,35,2176,1367,7255,107,-4665,1079,
255,7,27,2023,12,18,47,45,-2898,445,4175,529,-3244,497,
256,7,27,2023,12,18,47,65,-1382,-332,3981,47,1080,-139,
257,7,27,2023,12,18,47,75,-3742,-1504,2309,29,984,-151,
258,7,27,2023,12,18,47,85,-3341,-1471,2205,-88,349,-148,
259,7,27,2023,12,18,47,95,-2724,-1395,2714,96,-623,158,
260,7,27,2023,12,18,47,105,-2577,-1309,3056,224,-1377,459,
261,7,27,2023,12,18,47,115,-1986,-612,3581,358,-1507,618,
262,7,27,2023,12,18,47,125,-1919,-240,3759,349,-1102,539,
263,7,27,2023,12,18,47,135,-2119,-608,3537,239,-510,349,
264,7,27,2023,12,18,47,145,-2311,-993,3313,226,-166,277,
265,7,27,2023,12,18,47,155,-2417,-1041,3200,280,-107,315,
266,7,27,2023,12,18,47,165,-2306,-813,3247,329,-150,357,
267,7,27,2023,12,18,47,175,-2203,-716,3382,332,-134,338,
268,7,27,2023,12,18,47,185,-2190,-695,3406,307,-31,299,
269,7,27,2023,12,18,47,195,-2225,-760,3352,273,96,282,
270,7,27,2023,12,18,47,205,-2281,-869,3287,265,164,307,
271,7,27,2023,12,18,47,215,-2281,-831,3299,276,189,342,
272,7,27,2023,12,18,47,225,-2234,-650,3376,247,254,329,
273,7,27,2023,12,18,47,235,-2180,-608,3393,177,388,270,
274,7,27,2023,12,18,47,245,-2188,-631,3374,136,545,224,
275,7,27,2023,12,18,47,255,-2199,-732,3392,127,716,237,
276,7,27,2023,12,18,47,265,-2099,-780,3447,106,921,285,
277,7,27,2023,12,18,47,275,-2081,-655,3453,65,1188,335,
278,7,27,2023,12,18,47,285,-2080,-573,3460,-2,1545,342,
279,7,27,2023,12,18,47,295,-2226,-510,3395,-88,1902,310,
280,7,27,2023,12,18,47,305,-2376,-661,3246,-198,2183,282,
281,7,27,2023,12,18,47,315,-2334,-720,3242,-270,2391,284,
282,7,27,2023,12,18,47,325,-2385,-787,3231,-308,2571,331,
283,7,27,2023,12,18,47,335,-2497,-796,3193,-303,2709,400,
284,7,27,2023,12,18,47,345,-2570,-644,3127,-288,2836,434,
285,7,27,2023,12,18,47,355,-2581,-689,3065,-335,2927,433,
286,7,27,2023,12,18,47,365,-2758,-755,2991,-284,2920,418,
287,7,27,2023,12,18,47,375,-2842,-731,2854,-204,2796,393,
288,7,27,2023,12,18,47,385,-2770,-768,2767,-175,2678,381,
289,7,27,2023,12,18,47,395,-2687,-870,2713,-164,2580,409,
290,7,27,2023,12,18,47,405,-2839,-855,2675,-143,2470,493,
291,7,27,2023,12,18,47,415,-2988,-727,2612,-80,2362,578,
292,7,27,2023,12,18,47,425,-2989,-610,2561,-40,2236,609,
293,7,27,2023,12,18,47,435,-3050,-549,2525,-45,2092,594,
294,7,27,2023,12,18,47,445,-3044,-559,2561,-39,1955,544,
295,7,27,2023,12,18,47,455,-3069,-618,2493,-1,1797,493,
296,7,27,2023,12,18,47,465,-3082,-647,2422,41,1606,459,
297,7,27,2023,12,18,47,475,-3123,-657,2282,98,1371,446,
298,7,27,2023,12,18,47,485,-3272,-634,2195,140,1092,445,
299,7,27,2023,12,18,47,495,-3336,-501,2125,140,760,406,
300,7,27,2023,12,18,47,505,-3313,-451,2183,100,396,324,
301,7,27,2023,12,18,47,515,-3237,-443,2342,76,98,213,
302,7,27,2023,12,18,47,525,-3085,-577,2402,49,-108,106,
303,7,27,2023,12,18,47,535,-3103,-565,2427,24,-241,34,
304,7,27,2023,12,18,47,545,-3142,-552,2364,25,-348,17,
305,7,27,2023,12,18,47,555,-3077,-686,2353,52,-466,67,
306,7,27,2023,12,18,47,565,-3070,-695,2515,60,-552,152,
307,7,27,2023,12,18,47,575,-3001,-651,2716,35,-512,224,
308,7,27,2023,12,18,47,585,-2894,-660,2780,14,-368,287,
309,7,27,2023,12,18,47,595,-2882,-565,2876,-7,-140,306,
310,7,27,2023,12,18,47,605,-2913,-447,2890,-34,169,272,
311,7,27,2023,12,18,47,615,-2907,-313,2838,-53,539,203,
312,7,27,2023,12,18,47,625,-2895,-300,2974,-64,956,117,
313,7,27,2023,12,18,47,635,-2792,-533,3110,-55,1468,92,
314,7,27,2023,12,18,47,645,-2670,-860,3211,-34,2160,221,
315,7,27,2023,12,18,47,655,-2743,-926,3156,-38,2934,475,
316,7,27,2023,12,18,47,665,-2805,-757,3094,-110,3727,734,
317,7,27,2023,12,18,47,675,-2812,-555,3070,-226,4577,912,
318,7,27,2023,12,18,47,685,-2873,-328,2997,-362,5528,999,
319,7,27,2023,12,18,47,695,-2995,-368,3042,-512,6594,1008,
320,7,27,2023,12,18,47,705,-3333,-396,3114,-613,7751,982,
321,7,27,2023,12,18,47,715,-3917,-366,3219,-742,8794,838,
322,7,27,2023,12,18,47,725,-4319,-408,3094,-1028,9514,514,
323,7,27,2023,12,18,47,735,-4762,-653,2809,-1302,9981,185,
324,7,27,2023,12,18,47,745,-5877,-662,3196,-1432,10180,42,
325,7,27,2023,12,18,47,755,-5929,-755,2123,-1536,9759,14,
326,7,27,2023,12,18,47,765,-7441,-1487,2608,-1236,9294,213,
327,7,27,2023,12,18,47,775,-6931,-1965,1621,-1842,7829,-99,
328,7,27,2023,12,18,47,785,-7966,-2243,-494,-2551,6569,578,
329,7,27,2023,12,18,47,795,-8268,713,-4740,-3333,5932,1968,
330,7,27,2023,12,18,47,805,-8670,2391,-7529,-4960,6614,3812,
331,7,27,2023,12,18,47,815,-9760,2778,-7007,-7401,7603,5130,
332,7,27,2023,12,18,47,825,-9760,2778,-7007,-7401,7603,5130,
333,7,27,2023,12,18,47,835,-9760,2778,-7007,-7401,7603,5130,
334,7,27,2023,12,18,47,845,-9760,2778,-7007,-7401,7603,5130,
335,7,27,2023,12,18,47,855,-9947,-5975,-1344,-8413,6832,6603,
336,7,27,2023,12,18,47,865,-8230,-6197,-302,-3969,7623,6672,
337,7,27,2023,12,18,47,875,-7305,-4764,1104,179,8826,5919,
338,7,27,2023,12,18,47,885,-6710,-3256,2637,2533,9638,4513,
339,7,27,2023,12,18,47,895,-6025,-2608,3671,3260,9805,2881,
340,7,27,2023,12,18,47,905,-5349,-2726,4236,3448,9495,1509,
341,7,27,2023,12,18,47,925,-4359,-2181,5047,4393,8282,179,
342,7,27,2023,12,18,47,935,-3746,-1712,5174,4736,7110,-119,
343,7,27,2023,12,18,47,945,-3116,-1209,5265,4751,5665,-298,
344,7,27,2023,12,18,47,955,-2637,-877,5310,4419,4075,-352,
345,7,27,2023,12,18,47,965,-2187,-698,5274,3787,2454,-403,
346,7,27,2023,12,18,47,975,-1744,-626,5160,2982,861,-469,
347,7,27,2023,12,18,47,985,-1322,-595,4949,2130,-591,-542,
348,7,27,2023,12,18,47,995,-897,-574,4677,1303,-1848,-615,
349,7,27,2023,12,18,48,5,-633,-672,4427,569,-2947,-694,
350,7,27,2023,12,18,48,15,-467,-931,4178,73,-3962,-769,
351,7,27,2023,12,18,48,25,-461,-1040,3984,-174,-4909,-825,
352,7,27,2023,12,18,48,35,-420,-943,3723,-266,-5844,-894,
353,7,27,2023,12,18,48,45,-111,-639,3305,-396,-6687,-1000,
354,7,27,2023,12,18,48,55,-74,-250,3095,-741,-7299,-1152,
355,7,27,2023,12,18,48,65,-493,-66,3194,-1274,-7821,-1382,
356,7,27,2023,12,18,48,75,-1009,-56,3440,-1819,-8421,-1670,
357,7,27,2023,12,18,48,85,-1461,75,3670,-2246,-9108,-1951,
358,7,27,2023,12,18,48,95,-1703,302,3679,-2593,-9831,-2243,
359,7,27,2023,12,18,48,105,-1989,569,3640,-2958,-10466,-2554,
360,7,27,2023,12,18,48,115,-2219,729,3618,-3293,-11025,-2867,
361,7,27,2023,12,18,48,125,-2563,891,3751,-3428,-11464,-3048,
362,7,27,2023,12,18,48,135,-2933,1338,3972,-3393,-11794,-3025,
363,7,27,2023,12,18,48,145,-3174,2003,4135,-3444,-12055,-2851,
364,7,27,2023,12,18,48,155,-3555,2541,4394,-3782,-12229,-2633,
365,7,27,2023,12,18,48,165,-4173,2640,4655,-4315,-12425,-2406,
366,7,27,2023,12,18,48,175,-4672,2386,4711,-4766,-12678,-2192,
367,7,27,2023,12,18,48,185,-4899,1896,4612,-4858,-12893,-1944,
368,7,27,2023,12,18,48,195,-4922,1464,4554,-4567,-12956,-1774,
369,7,27,2023,12,18,48,205,-5039,1438,4707,-4088,-12819,-1768,
370,7,27,2023,12,18,48,215,-5573,1687,5196,-3740,-12589,-1914,
371,7,27,2023,12,18,48,225,-6415,1722,5680,-3656,-12509,-2127,
372,7,27,2023,12,18,48,235,-6827,1438,5752,-3574,-12648,-2184,
373,7,27,2023,12,18,48,245,-6772,1111,5638,-3313,-12732,-2045,
374,7,27,2023,12,18,48,255,-6787,866,5635,-3005,-12599,-1873,
375,7,27,2023,12,18,48,265,-7229,876,5722,-2846,-12258,-1794,
376,7,27,2023,12,18,48,275,-8004,943,5380,-2975,-11787,-1823,
377,7,27,2023,12,18,48,285,-8475,944,4119,-3272,-11159,-1884,
378,7,27,2023,12,18,48,295,-8234,1272,2686,-3504,-10133,-1953,
379,7,27,2023,12,18,48,305,-7751,1637,1982,-3427,-8650,-1935,
380,7,27,2023,12,18,48,315,-7735,1956,1968,-2994,-7053,-1740,
381,7,27,2023,12,18,48,325,-8458,2557,1972,-2331,-5694,-1421,
382,7,27,2023,12,18,48,335,-9307,3149,1591,-1828,-4797,-998,
383,7,27,2023,12,18,48,345,-9861,3234,957,-1713,-4472,-391,
384,7,27,2023,12,18,48,355,-9854,2661,197,-1802,-4595,288,
385,7,27,2023,12,18,48,365,-9083,1718,-847,-1572,-4846,984,
386,7,27,2023,12,18,48,375,-7646,1573,-2153,-932,-4794,1795,
387,7,27,2023,12,18,48,385,-6826,1913,-2786,-557,-4169,2604,
388,7,27,2023,12,18,48,395,-6676,1910,-2694,-833,-3249,3239,
389,7,27,2023,12,18,48,405,-7159,1456,-1941,-1329,-2411,3623,
390,7,27,2023,12,18,48,415,-7331,937,-1263,-1408,-2016,3890,
391,7,27,2023,12,18,48,425,-6184,1164,-1277,-912,-1848,4211,
392,7,27,2023,12,18,48,435,-4255,903,-3275,-112,-1031,4921,
393,7,27,2023,12,18,48,445,-1850,1753,-2035,1952,1527,7258,
394,7,27,2023,12,18,48,455,-3018,-4288,6542,2057,3059,8136,
395,7,27,2023,12,18,48,465,1196,-7907,3604,1578,2923,5940,
396,7,27,2023,12,18,48,475,1695,-7103,-1147,1416,5276,2446,
397,7,27,2023,12,18,48,485,-9057,-1327,8519,1753,8589,174,
398,7,27,2023,12,18,48,495,-13622,3998,10323,2709,6104,639,
399,7,27,2023,12,18,48,505,-3984,-56,3807,2027,2588,1463,
400,7,27,2023,12,18,48,515,-1142,-1194,5254,1612,2790,833,
401,7,27,2023,12,18,48,525,-4348,2556,5666,746,2973,206,
402,7,27,2023,12,18,48,535,-3266,-1092,3087,-434,1756,125,
403,7,27,2023,12,18,48,545,-2935,-1571,3124,-383,1430,-35,
404,7,27,2023,12,18,48,555,-2889,-67,3711,-435,1351,-155,
405,7,27,2023,12,18,48,565,-2132,-1065,3453,-748,1233,-208,
406,7,27,2023,12,18,48,575,-2243,-921,3515,-792,1408,-150,
407,7,27,2023,12,18,48,585,-2686,-901,3470,-839,1603,-98,
408,7,27,2023,12,18,48,595,-2865,-829,3346,-921,1732,-129,
409,7,27,2023,12,18,48,605,-2661,-991,3159,-941,1772,-235,
410,7,27,2023,12,18,48,615,-2506,-1126,3164,-895,1756,-271,
411,7,27,2023,12,18,48,625,-2322,-1170,3216,-858,1754,-217,
412,7,27,2023,12,18,48,635,-2389,-1200,3128,-803,1785,-117,
413,7,27,2023,12,18,48,645,-2462,-1339,3005,-739,1784,-4,
414,7,27,2023,12,18,48,655,-2476,-1357,3008,-636,1722,139,
415,7,27,2023,12,18,48,665,-2554,-1281,2974,-581,1608,269,
416,7,27,2023,12,18,48,675,-2547,-1471,2912,-602,1483,377,
417,7,27,2023,12,18,48,685,-2496,-1296,3007,-522,1427,470,
418,7,27,2023,12,18,48,695,-2563,-1085,2990,-465,1407,502,
419,7,27,2023,12,18,48,705,-2694,-1039,2872,-463,1387,444,
420,7,27,2023,12,18,48,715,-2743,-950,2839,-472,1358,318,
421,7,27,2023,12,18,48,725,-2717,-978,2741,-482,1307,192,
422,7,27,2023,12,18,48,735,-2633,-1193,2745,-425,1243,160,
423,7,27,2023,12,18,48,745,-2630,-1336,2753,-350,1158,223,
424,7,27,2023,12,18,48,755,-2734,-1260,2674,-315,1020,289,
425,7,27,2023,12,18,48,765,-2810,-1233,2616,-278,854,309,
426,7,27,2023,12,18,48,785,-2901,-1210,2566,-113,504,273,
427,7,27,2023,12,18,48,795,-2872,-1249,2517,-41,298,275,
428,7,27,2023,12,18,48,805,-2795,-1276,2538,41,77,316,
429,7,27,2023,12,18,48,815,-2785,-1187,2671,120,-104,340,
430,7,27,2023,12,18,48,825,-2776,-1121,2760,174,-211,322,
431,7,27,2023,12,18,48,835,-2694,-1125,2834,203,-260,266,
432,7,27,2023,12,18,48,845,-2656,-1133,2866,214,-259,213,
433,7,27,2023,12,18,48,855,-2616,-1239,2864,217,-212,216,
434,7,27,2023,12,18,48,865,-2691,-1093,2850,157,-158,303,
435,7,27,2023,12,18,48,875,-2852,-851,2809,88,-126,311,
436,7,27,2023,12,18,48,885,-2848,-765,2832,34,-134,169,
437,7,27,2023,12,18,48,895,-2779,-797,2916,-25,-108,-9,
438,7,27,2023,12,18,48,905,-2686,-999,2944,-104,-17,-137,
439,7,27,2023,12,18,48,915,-2598,-1229,2934,-166,102,-143,
440,7,27,2023,12,18,48,925,-2672,-1219,2857,-212,211,-46,
441,7,27,2023,12,18,48,935,-2778,-1134,2768,-245,243,18,
442,7,27,2023,12,18,48,945,-2833,-1087,2743,-245,189,6,
443,7,27,2023,12,18,48,955,-2911,-1030,2748,-251,108,-52,
444,7,27,2023,12,18,48,965,-2909,-1082,2709,-238,19,-134,
445,7,27,2023,12,18,48,975,-2761,-1292,2633,-178,-106,-153,
446,7,27,2023,12,18,48,985,-2743,-1420,2581,-69,-237,-49,
447,7,27,2023,12,18,48,995,-2661,-1384,2629,39,-382,95,
448,7,27,2023,12,18,49,5,-2687,-1180,2797,-1,-481,226,
449,7,27,2023,12,18,49,15,-2839,-890,2844,-159,-492,247,
450,7,27,2023,12,18,49,25,-2916,-706,2902,-302,-498,122,
451,7,27,2023,12,18,49,35,-2811,-735,2942,-442,-475,-80,
452,7,27,2023,12,18,49,45,-2748,-1069,2847,-502,-498,-138,
453,7,27,2023,12,18,49,55,-2657,-1254,2894,-383,-580,-20,
454,7,27,2023,12,18,49,65,-2701,-1405,2850,-252,-630,117,
455,7,27,2023,12,18,49,75,-2686,-1309,2816,-132,-733,298,
456,7,27,2023,12,18,49,85,-2636,-1291,2852,-98,-864,473,
457,7,27,2023,12,18,49,95,-2676,-1276,2822,-124,-990,632,
458,7,27,2023,12,18,49,105,-2479,-1273,2746,-217,-1091,774,
459,7,27,2023,12,18,49,115,-2299,-1264,2985,-382,-1048,826,
460,7,27,2023,12,18,49,125,-2449,-837,3198,-514,-884,841,
461,7,27,2023,12,18,49,135,-2462,-925,3138,-622,-724,862,
462,7,27,2023,12,18,49,145,-2369,-1111,3183,-666,-521,843,
463,7,27,2023,12,18,49,155,-2312,-1169,3265,-754,-299,865,
464,7,27,2023,12,18,49,165,-2262,-1088,3339,-970,-144,1027,
465,7,27,2023,12,18,49,175,-2255,-898,3484,-1414,-128,1352,
466,7,27,2023,12,18,49,185,-2187,-770,3556,-2148,-311,1887,
467,7,27,2023,12,18,49,195,-2128,-930,3451,-3038,-687,2645,
468,7,27,2023,12,18,49,205,-2153,-1074,3236,-3875,-1158,3527,
469,7,27,2023,12,18,49,215,-2261,-1278,2944,-4554,-1681,4431,
470,7,27,2023,12,18,49,225,-2398,-1454,2672,-5016,-2186,5234,
471,7,27,2023,12,18,49,235,-2580,-1584,2487,-5257,-2565,5896,
472,7,27,2023,12,18,49,245,-2869,-1161,2608,-5373,-2818,6408,
473,7,27,2023,12,18,49,255,-2835,-688,2986,-5843,-3158,6799,
474,7,27,2023,12,18,49,265,-2592,-1304,2885,-6375,-3602,7249,
475,7,27,2023,12,18,49,275,-2649,-1340,2631,-6362,-3867,7603,
476,7,27,2023,12,18,49,285,-2825,-959,2613,-6193,-3971,7752,
477,7,27,2023,12,18,49,295,-2710,-1223,2586,-5921,-4000,7733,
478,7,27,2023,12,18,49,305,-2897,-1030,2636,-5327,-3824,7460,
479,7,27,2023,12,18,49,315,-3077,-769,2585,-4655,-3566,6984,
480,7,27,2023,12,18,49,325,-3158,-660,2612,-4066,-3210,6353,
481,7,27,2023,12,18,49,335,-2909,-624,2813,-3565,-2812,5626,
482,7,27,2023,12,18,49,345,-2579,-662,3029,-3082,-2445,4947,
483,7,27,2023,12,18,49,355,-2469,-992,3042,-2627,-2118,4338,
484,7,27,2023,12,18,49,365,-2506,-1055,3013,-2068,-1795,3722,
485,7,27,2023,12,18,49,375,-2500,-883,3063,-1475,-1482,3065,
486,7,27,2023,12,18,49,385,-2529,-902,3087,-949,-1205,2375,
487,7,27,2023,12,18,49,395,-2526,-776,3111,-463,-960,1687,
488,7,27,2023,12,18,49,405,-2479,-663,3173,-64,-748,1067,
489,7,27,2023,12,18,49,415,-2514,-578,3202,175,-558,557,
490,7,27,2023,12,18,49,425,-2530,-697,3137,229,-431,216,
491,7,27,2023,12,18,49,435,-2459,-854,3086,194,-373,49,
492,7,27,2023,12,18,49,445,-2327,-948,3134,123,-363,3,
493,7,27,2023,12,18,49,455,-2350,-927,3175,70,-358,12,
494,7,27,2023,12,18,49,465,-2416,-841,3152,50,-345,9,
495,7,27,2023,12,18,49,475,-2408,-918,3133,47,-355,-12,
496,7,27,2023,12,18,49,485,-2453,-967,3116,93,-377,-17,
497,7,27,2023,12,18,49,495,-2464,-944,3109,140,-428,-25,
498,7,27,2023,12,18,49,505,-2426,-939,3134,187,-496,-35,
499,7,27,2023,12,18,49,515,-2400,-889,3149,225,-579,-36,
500,7,27,2023,12,18,49,525,-2354,-773,3190,238,-639,-43,
501,7,27,2023,12,18,49,535,-2367,-781,3210,214,-638,-54,
502,7,27,2023,12,18,49,545,-2380,-857,3205,177,-609,-44,
503,7,27,2023,12,18,49,555,-2354,-848,3222,150,-578,-22,
504,7,27,2023,12,18,49,565,-2277,-811,3235,131,-546,-4,
505,7,27,2023,12,18,49,575,-2207,-868,3268,108,-512,10,
506,7,27,2023,12,18,49,585,-2258,-840,3275,118,-467,32,
507,7,27,2023,12,18,49,595,-2322,-784,3269,127,-426,25,
508,7,27,2023,12,18,49,605,-2319,-782,3274,117,-388,-5,
509,7,27,2023,12,18,49,615,-2297,-806,3279,107,-351,-35,
510,7,27,2023,12,18,49,625,-2305,-800,3254,105,-316,-56,
511,7,27,2023,12,18,49,645,-2237,-809,3257,41,-268,-79,
512,7,27,2023,12,18,49,655,-2219,-878,3265,7,-230,-60,
513,7,27,2023,12,18,49,665,-2249,-837,3274,2,-202,-37,
514,7,27,2023,12,18,49,675,-2272,-837,3266,0,-188,-32,
515,7,27,2023,12,18,49,685,-2261,-836,3264,-3,-183,-34,
516,7,27,2023,12,18,49,695,-2237,-803,3262,-5,-184,-42,
517,7,27,2023,12,18,49,705,-2200,-783,3289,-15,-181,-50,
518,7,27,2023,12,18,49,715,-2231,-793,3299,-25,-164,-65,
519,7,27,2023,12,18,49,725,-2255,-817,3287,-29,-149,-78,
520,7,27,2023,12,18,49,735,-2244,-858,3276,-30,-139,-87,
521,7,27,2023,12,18,49,745,-2252,-871,3270,-18,-140,-82,
522,7,27,2023,12,18,49,755,-2242,-889,3271,7,-148,-67,
523,7,27,2023,12,18,49,765,-2226,-884,3269,26,-162,-56,
524,7,27,2023,12,18,49,775,-2219,-868,3276,43,-184,-46,
525,7,27,2023,12,18,49,785,-2228,-873,3280,61,-212,-34,
526,7,27,2023,12,18,49,795,-2240,-856,3271,81,-239,-23,
527,7,27,2023,12,18,49,805,-2225,-845,3287,94,-253,-17,
528,7,27,2023,12,18,49,815,-2213,-818,3298,102,-265,-10,
529,7,27,2023,12,18,49,825,-2196,-806,3302,103,-278,-10,
530,7,27,2023,12,18,49,835,-2191,-792,3318,91,-266,-16,
531,7,27,2023,12,18,49,845,-2193,-819,3319,77,-240,-24,
532,7,27,2023,12,18,49,855,-2184,-846,3319,74,-217,-23,
533,7,27,2023,12,18,49,865,-2178,-836,3312,70,-199,-17,
534,7,27,2023,12,18,49,875,-2182,-829,3316,71,-187,-10,
535,7,27,2023,12,18,49,885,-2183,-815,3312,66,-179,-6,
536,7,27,2023,12,18,49,895,-2197,-813,3315,60,-175,-6,
537,7,27,2023,12,18,49,905,-2193,-791,3323,58,-183,-10,
538,7,27,2023,12,18,49,915,-2188,-802,3335,55,-185,-21,
539,7,27,2023,12,18,49,925,-2177,-811,3324,51,-186,-27,
540,7,27,2023,12,18,49,935,-2168,-825,3326,49,-179,-27,
541,7,27,2023,12,18,49,945,-2160,-820,3335,52,-169,-28,
542,7,27,2023,12,18,49,955,-2139,-824,3330,56,-159,-20,
543,7,27,2023,12,18,49,965,-2141,-828,3329,55,-147,-12,
544,7,27,2023,12,18,49,975,-2154,-830,3339,54,-139,-2,
545,7,27,2023,12,18,49,985,-2157,-824,3343,64,-132,5,
546,7,27,2023,12,18,49,995,-2154,-824,3343,68,-126,8,
547,7,27,2023,12,18,50,5,-2150,-824,3346,67,-119,16,
548,7,27,2023,12,18,50,15,-2132,-808,3338,67,-117,21,
549,7,27,2023,12,18,50,25,-2137,-801,3350,67,-110,25,
550,7,27,2023,12,18,50,35,-2153,-789,3357,59,-100,25,
551,7,27,2023,12,18,50,45,-2156,-789,3358,51,-93,19,
552,7,27,2023,12,18,50,55,-2149,-784,3353,37,-83,12,
553,7,27,2023,12,18,50,65,-2147,-797,3347,29,-80,9,
554,7,27,2023,12,18,50,75,-2143,-799,3350,25,-76,6,
555,7,27,2023,12,18,50,85,-2141,-801,3349,26,-73,4,
556,7,27,2023,12,18,50,95,-2144,-808,3351,31,-73,8,
557,7,27,2023,12,18,50,105,-2124,-810,3348,28,-71,11,
558,7,27,2023,12,18,50,115,-2140,-808,3353,32,-67,16,
559,7,27,2023,12,18,50,125,-2141,-801,3349,37,-71,20,
560,7,27,2023,12,18,50,135,-2124,-788,3355,41,-77,21,
561,7,27,2023,12,18,50,145,-2132,-788,3364,41,-76,22,
562,7,27,2023,12,18,50,155,-2129,-794,3359,38,-71,22,
563,7,27,2023,12,18,50,165,-2131,-784,3357,39,-67,20,
564,7,27,2023,12,18,50,175,-2140,-790,3356,37,-62,15,
565,7,27,2023,12,18,50,185,-2142,-795,3364,32,-58,13,
566,7,27,2023,12,18,50,195,-2136,-796,3354,34,-66,16,
567,7,27,2023,12,18,50,205,-2125,-786,3357,34,-69,14,
568,7,27,2023,12,18,50,215,-2121,-777,3370,34,-67,16,
569,7,27,2023,12,18,50,225,-2129,-785,3367,29,-59,13,
570,7,27,2023,12,18,50,235,-2130,-783,3364,26,-50,9,
571,7,27,2023,12,18,50,245,-2139,-777,3367,20,-44,8,
572,7,27,2023,12,18,50,255,-2122,-784,3361,14,-40,5,
573,7,27,2023,12,18,50,265,-2109,-788,3358,9,-40,5,
574,7,27,2023,12,18,50,275,-2108,-780,3362,8,-37,6,
575,7,27,2023,12,18,50,285,-2121,-786,3375,8,-32,7,
576,7,27,2023,12,18,50,295,-2132,-790,3372,6,-26,8,
577,7,27,2023,12,18,50,305,-2127,-777,3369,3,-24,8,
578,7,27,2023,12,18,50,315,-2128,-784,3367,0,-19,3,
579,7,27,2023,12,18,50,325,-2128,-786,3366,0,-20,4,
580,7,27,2023,12,18,50,335,-2130,-786,3359,0,-21,7,
581,7,27,2023,12,18,50,345,-2129,-789,3358,-4,-22,5,
582,7,27,2023,12,18,50,355,-2123,-782,3366,-2,-22,9,
583,7,27,2023,12,18,50,365,-2128,-785,3376,1,-26,9,
584,7,27,2023,12,18,50,375,-2127,-788,3371,2,-21,6,
585,7,27,2023,12,18,50,385,-2108,-780,3362,0,-19,4,
586,7,27,2023,12,18,50,395,-2105,-790,3365,0,-18,10,
587,7,27,2023,12,18,50,405,-2120,-789,3375,-4,-10,14,
588,7,27,2023,12,18,50,415,-2137,-795,3362,-9,-3,11,
589,7,27,2023,12,18,50,425,-2128,-773,3367,-9,-3,14,
590,7,27,2023,12,18,50,435,-2135,-783,3366,-9,1,6,
591,7,27,2023,12,18,50,445,-2135,-791,3366,-7,2,9,
592,7,27,2023,12,18,50,455,-2122,-790,3359,-3,-3,11,
593,7,27,2023,12,18,50,465,-2117,-786,3364,-4,-3,10,
594,7,27,2023,12,18,50,475,-2116,-788,3368,-3,-3,15,
595,7,27,2023,12,18,50,485,-2131,-787,3373,0,2,14,
596,7,27,2023,12,18,50,505,-2125,-783,3361,-4,6,10,
597,7,27,2023,12,18,50,515,-2125,-774,3363,-5,7,7,
598,7,27,2023,12,18,50,525,-2121,-780,3360,-7,3,9,
599,7,27,2023,12,18,50,535,-2131,-794,3360,-5,0,12,
600,7,27,2023,12,18,50,545,-2131,-787,3370,-2,-3,13,
601,7,27,2023,12,18,50,555,-2136,-789,3366,-4,-2,14,
602,7,27,2023,12,18,50,565,-2136,-772,3366,-4,3,11,
603,7,27,2023,12,18,50,575,-2125,-778,3365,-7,-2,10,
604,7,27,2023,12,18,50,585,-2128,-779,3366,-5,-4,13,
605,7,27,2023,12,18,50,595,-2129,-779,3364,-5,-4,15,
606,7,27,2023,12,18,50,605,-2131,-787,3357,-6,-4,10,
607,7,27,2023,12,18,50,615,-2139,-782,3366,-6,-7,8,
608,7,27,2023,12,18,50,625,-2130,-788,3359,-5,-11,8,
609,7,27,2023,12,18,50,635,-2122,-790,3363,0,-13,13,
610,7,27,2023,12,18,50,645,-2112,-774,3366,0,-13,17,
611,7,27,2023,12,18,50,655,-2132,-778,3368,-5,-11,12,
612,7,27,2023,12,18,50,665,-2131,-780,3369,-4,-6,10,
613,7,27,2023,12,18,50,675,-2139,-771,3363,-6,-8,8,
614,7,27,2023,12,18,50,685,-2139,-787,3362,-10,-12,4,
615,7,27,2023,12,18,50,695,-2132,-782,3369,-7,-12,1,
616,7,27,2023,12,18,50,705,-2128,-785,3361,-5,-13,2,
617,7,27,2023,12,18,50,715,-2123,-780,3363,-7,-14,2,
618,7,27,2023,12,18,50,725,-2128,-785,3368,-6,-11,4,
619,7,27,2023,12,18,50,735,-2132,-787,3372,-5,-7,6,
620,7,27,2023,12,18,50,745,-2128,-779,3368,-3,-3,5,
621,7,27,2023,12,18,50,755,-2130,-778,3365,-3,-5,6,
622,7,27,2023,12,18,50,765,-2123,-777,3364,-5,-7,6,
623,7,27,2023,12,18,50,775,-2123,-774,3359,-6,-7,6,
624,7,27,2023,12,18,50,785,-2130,-778,3357,-3,-11,4,
625,7,27,2023,12,18,50,795,-2134,-786,3366,-3,-14,2,
626,7,27,2023,12,18,50,805,-2119,-788,3367,-4,-14,2,
627,7,27,2023,12,18,50,815,-2118,-784,3370,-3,-12,3,
628,7,27,2023,12,18,50,825,-2111,-782,3373,-3,-7,6,
629,7,27,2023,12,18,50,835,-2127,-783,3365,-4,1,5,
630,7,27,2023,12,18,50,845,-2135,-785,3354,-9,1,6,
631,7,27,2023,12,18,50,855,-2135,-772,3366,-7,0,6,
632,7,27,2023,12,18,50,865,-2133,-774,3364,-9,-3,4,
633,7,27,2023,12,18,50,875,-2136,-778,3369,-9,-6,2,
634,7,27,2023,12,18,50,885,-2136,-778,3365,-7,-14,-1,
635,7,27,2023,12,18,50,895,-2137,-785,3358,-7,-21,0,
636,7,27,2023,12,18,50,905,-2133,-781,3360,-7,-20,-3,
637,7,27,2023,12,18,50,915,-2126,-784,3366,-7,-19,-2,
638,7,27,2023,12,18,50,925,-2126,-786,3368,-6,-20,0,
639,7,27,2023,12,18,50,935,-2128,-785,3363,-6,-16,3,
640,7,27,2023,12,18,50,945,-2128,-773,3367,-4,-19,2,
641,7,27,2023,12,18,50,955,-2124,-777,3355,-3,-16,1,
642,7,27,2023,12,18,50,965,-2125,-782,3367,-6,-20,2,
643,7,27,2023,12,18,50,975,-2130,-782,3365,-6,-21,3,
644,7,27,2023,12,18,50,985,-2133,-773,3368,-8,-19,0,
645,7,27,2023,12,18,50,995,-2131,-794,3376,-7,-20,-1,
646,7,27,2023,12,18,51,5,-2126,-790,3372,-4,-19,3,
647,7,27,2023,12,18,51,15,-2125,-784,3361,-4,-17,3,
648,7,27,2023,12,18,51,25,-2118,-787,3364,-3,-19,2,
649,7,27,2023,12,18,51,35,-2128,-785,3370,-3,-16,3,
650,7,27,2023,12,18,51,45,-2130,-771,3363,0,-19,6,
651,7,27,2023,12,18,51,55,-2134,-773,3364,2,-20,1,
652,7,27,2023,12,18,51,65,-2131,-782,3371,-4,-23,-5,
653,7,27,2023,12,18,51,75,-2130,-783,3368,-4,-24,-3,
654,7,27,2023,12,18,51,85,-2127,-789,3364,-1,-29,2,
655,7,27,2023,12,18,51,95,-2128,-784,3368,4,-28,0,
656,7,27,2023,12,18,51,105,-2128,-784,3369,7,-30,1,
657,7,27,2023,12,18,51,115,-2121,-785,3362,6,-32,3,
658,7,27,2023,12,18,51,125,-2129,-778,3371,5,-35,4,
659,7,27,2023,12,18,51,135,-2109,-773,3374,4,-40,1,
660,7,27,2023,12,18,51,145,-2124,-783,3376,5,-36,1,
661,7,27,2023,12,18,51,155,-2125,-780,3370,5,-31,3,
662,7,27,2023,12,18,51,165,-2117,-780,3370,8,-29,4,
663,7,27,2023,12,18,51,175,-2120,-783,3376,7,-26,5,
664,7,27,2023,12,18,51,185,-2112,-780,3375,7,-25,5,
665,7,27,2023,12,18,51,195,-2113,-783,3375,5,-24,6,
666,7,27,2023,12,18,51,205,-2116,-778,3375,5,-17,8,
667,7,27,2023,12,18,51,215,-2117,-776,3373,2,-14,7,
668,7,27,2023,12,18,51,225,-2119,-781,3369,3,-14,7,
669,7,27,2023,12,18,51,235,-2123,-775,3370,4,-12,5,
670,7,27,2023,12,18,51,245,-2112,-779,3372,4,-10,8,
671,7,27,2023,12,18,51,255,-2118,-787,3372,5,-10,9,
672,7,27,2023,12,18,51,265,-2122,-781,3372,8,-9,13,
673,7,27,2023,12,18,51,275,-2115,-776,3374,11,-11,16,
674,7,27,2023,12,18,51,285,-2119,-779,3375,6,-15,13,
675,7,27,2023,12,18,51,295,-2135,-763,3376,8,-20,11,
676,7,27,2023,12,18,51,305,-2107,-779,3364,5,-21,7,
677,7,27,2023,12,18,51,315,-2130,-793,3370,8,-23,8,
678,7,27,2023,12,18,51,325,-2119,-765,3375,8,-24,13,
679,7,27,2023,12,18,51,335,-2110,-780,3369,9,-25,9,
680,7,27,2023,12,18,51,345,-2122,-775,3367,7,-23,10,
681,7,27,2023,12,18,51,365,-2114,-777,3372,7,-30,8,
682,7,27,2023,12,18,51,375,-2134,-775,3378,10,-33,10,
683,7,27,2023,12,18,51,385,-2120,-767,3371,10,-37,8,
684,7,27,2023,12,18,51,395,-2098,-765,3371,10,-37,2,
685,7,27,2023,12,18,51,405,-2113,-774,3382,7,-33,7,
686,7,27,2023,12,18,51,415,-2120,-773,3377,10,-30,8,
687,7,27,2023,12,18,51,425,-2122,-767,3377,9,-33,8,
688,7,27,2023,12,18,51,435,-2127,-769,3373,5,-37,7,
689,7,27,2023,12,18,51,445,-2115,-767,3377,4,-39,1,
690,7,27,2023,12,18,51,455,-2116,-772,3378,6,-44,-1,
691,7,27,2023,12,18,51,465,-2102,-778,3381,6,-45,0,
692,7,27,2023,12,18,51,475,-2113,-777,3379,5,-41,3,
693,7,27,2023,12,18,51,485,-2102,-780,3371,5,-37,1,
694,7,27,2023,12,18,51,495,-2101,-788,3384,7,-33,6,
695,7,27,2023,12,18,51,505,-2109,-787,3381,7,-23,10,
696,7,27,2023,12,18,51,515,-2086,-771,3376,9,-15,17,
697,7,27,2023,12,18,51,525,-2097,-767,3382,7,-8,21,
698,7,27,2023,12,18,51,535,-2112,-771,3382,7,1,23,
699,7,27,2023,12,18,51,545,-2110,-769,3390,6,2,23,
700,7,27,2023,12,18,51,555,-2110,-769,3390,6,2,23,
701,7,27,2023,12,18,51,565,-2116,-759,3388,2,7,22,
702,7,27,2023,12,18,51,575,-2115,-764,3375,-2,11,20,
703,7,27,2023,12,18,51,585,-2112,-768,3376,-5,19,18,
704,7,27,2023,12,18,51,595,-2105,-776,3377,-7,19,19,
705,7,27,2023,12,18,51,605,-2106,-775,3387,-5,22,22,
706,7,27,2023,12,18,51,615,-2109,-770,3385,-6,26,25,
707,7,27,2023,12,18,51,625,-2114,-774,3377,-8,35,25,
708,7,27,2023,12,18,51,635,-2116,-769,3373,-14,44,28,
709,7,27,2023,12,18,51,645,-2126,-768,3371,-16,44,28,
710,7,27,2023,12,18,51,655,-2118,-777,3378,-14,43,23,
711,7,27,2023,12,18,51,665,-2122,-773,3365,-8,35,28,
712,7,27,2023,12,18,51,675,-2121,-767,3373,-2,27,31,
713,7,27,2023,12,18,51,685,-2119,-764,3367,-3,20,29,
714,7,27,2023,12,18,51,695,-2127,-750,3373,-4,22,35,
715,7,27,2023,12,18,51,705,-2124,-752,3377,-6,24,24,
716,7,27,2023,12,18,51,715,-2121,-769,3381,-16,30,19,
717,7,27,2023,12,18,51,725,-2127,-752,3381,-22,35,15,
718,7,27,2023,12,18,51,735,-2113,-796,3369,-25,37,13,
719,7,27,2023,12,18,51,745,-2117,-762,3375,-20,38,17,
720,7,27,2023,12,18,51,755,-2120,-756,3378,-20,38,17,
721,7,27,2023,12,18,51,765,-2125,-765,3365,-23,38,16,
722,7,27,2023,12,18,51,775,-2123,-765,3368,-19,37,17,
723,7,27,2023,12,18,51,785,-2131,-767,3360,-20,33,15,
724,7,27,2023,12,18,51,795,-2124,-766,3366,-25,31,12,
725,7,27,2023,12,18,51,805,-2123,-776,3364,-24,31,18,
726,7,27,2023,12,18,51,815,-2126,-785,3366,-21,34,18,
727,7,27,2023,12,18,51,825,-2128,-769,3372,-18,35,22,
728,7,27,2023,12,18,51,835,-2137,-768,3369,-18,37,22,
729,7,27,2023,12,18,51,845,-2140,-770,3371,-18,41,20,
730,7,27,2023,12,18,51,855,-2128,-766,3360,-19,36,24,
731,7,27,2023,12,18,51,865,-2134,-765,3361,-16,34,24,
732,7,27,2023,12,18,51,875,-2143,-773,3371,-16,33,20,
733,7,27,2023,12,18,51,885,-2147,-752,3369,-19,20,18,
734,7,27,2023,12,18,51,895,-2137,-789,3355,-21,16,14,
735,7,27,2023,12,18,51,905,-2140,-744,3363,-6,19,18,
736,7,27,2023,12,18,51,915,-2153,-758,3366,-6,13,19,
737,7,27,2023,12,18,51,925,-2138,-770,3361,-8,6,13,
738,7,27,2023,12,18,51,935,-2136,-761,3358,-9,3,8,
739,7,27,2023,12,18,51,945,-2141,-772,3358,-10,2,9,
740,7,27,2023,12,18,51,955,-2146,-773,3360,-4,-2,12,
741,7,27,2023,12,18,51,965,-2142,-765,3355,-3,-5,11,
742,7,27,2023,12,18,51,975,-2140,-776,3362,-4,-7,11,
743,7,27,2023,12,18,51,985,-2159,-764,3355,-4,-7,11,
744,7,27,2023,12,18,51,995,-2131,-743,3357,-6,-16,8,
745,7,27,2023,12,18,52,5,-2143,-777,3361,-5,-21,9,
746,7,27,2023,12,18,52,15,-2153,-741,3355,-3,-25,4,
747,7,27,2023,12,18,52,25,-2142,-752,3367,-9,-36,-1,
748,7,27,2023,12,18,52,35,-2156,-745,3359,-13,-41,-9,
749,7,27,2023,12,18,52,45,-2136,-745,3368,-19,-49,-18,
750,7,27,2023,12,18,52,55,-2132,-763,3366,-27,-52,-25,
751,7,27,2023,12,18,52,65,-2110,-777,3370,-29,-48,-31,
752,7,27,2023,12,18,52,75,-2126,-791,3368,-28,-36,-28,
753,7,27,2023,12,18,52,85,-2126,-792,3371,-26,-26,-21,
754,7,27,2023,12,18,52,95,-2129,-791,3362,-26,-24,-13,
755,7,27,2023,12,18,52,105,-2131,-793,3370,-14,-25,-5,
756,7,27,2023,12,18,52,115,-2121,-794,3358,-10,-22,0,
757,7,27,2023,12,18,52,125,-2121,-765,3366,-8,-23,6,
758,7,27,2023,12,18,52,135,-2122,-776,3374,-6,-22,10,
759,7,27,2023,12,18,52,145,-2108,-784,3382,-7,-13,15,
760,7,27,2023,12,18,52,155,-2121,-778,3379,-12,10,18,
761,7,27,2023,12,18,52,165,-2108,-774,3378,-19,31,13,
762,7,27,2023,12,18,52,175,-2123,-795,3372,-21,53,18,
763,7,27,2023,12,18,52,185,-2127,-780,3374,-15,68,23,
764,7,27,2023,12,18,52,195,-2128,-785,3368,-18,75,29,
765,7,27,2023,12,18,52,205,-2130,-788,3363,-17,86,37,
766,7,27,2023,12,18,52,225,-2138,-772,3354,-13,101,49,
767,7,27,2023,12,18,52,235,-2142,-755,3359,-12,101,49,
768,7,27,2023,12,18,52,245,-2158,-753,3355,-18,104,42,
769,7,27,2023,12,18,52,255,-2142,-762,3346,-22,103,37,
770,7,27,2023,12,18,52,265,-2138,-756,3356,-27,106,34,
771,7,27,2023,12,18,52,275,-2144,-773,3359,-29,108,36,
772,7,27,2023,12,18,52,285,-2158,-759,3362,-30,114,37,
773,7,27,2023,12,18,52,295,-2168,-750,3354,-37,121,31,
774,7,27,2023,12,18,52,305,-2163,-750,3351,-48,124,20,
775,7,27,2023,12,18,52,315,-2170,-751,3341,-57,124,11,
776,7,27,2023,12,18,52,325,-2191,-755,3330,-59,112,5,
777,7,27,2023,12,18,52,335,-2185,-757,3319,-61,90,-5,
778,7,27,2023,12,18,52,345,-2173,-749,3335,-68,68,-11,
779,7,27,2023,12,18,52,355,-2173,-758,3338,-73,59,-19,
780,7,27,2023,12,18,52,365,-2163,-796,3343,-78,60,-29,
781,7,27,2023,12,18,52,375,-2154,-803,3346,-69,63,-19,
782,7,27,2023,12,18,52,385,-2156,-792,3335,-62,71,-19,
783,7,27,2023,12,18,52,395,-2157,-803,3331,-61,76,-16,
784,7,27,2023,12,18,52,405,-2163,-743,3341,-85,87,-21,
785,7,27,2023,12,18,52,415,-2157,-792,3335,-79,84,-12,
786,7,27,2023,12,18,52,425,-2163,-770,3333,-74,95,-6,
787,7,27,2023,12,18,52,435,-2168,-796,3333,-86,109,-7,
788,7,27,2023,12,18,52,445,-2156,-795,3339,-79,121,-2,
789,7,27,2023,12,18,52,455,-2173,-789,3324,-73,135,-2,
790,7,27,2023,12,18,52,465,-2189,-800,3312,-71,134,2,
791,7,27,2023,12,18,52,475,-2181,-772,3314,-72,124,2,
792,7,27,2023,12,18,52,485,-2174,-762,3321,-76,119,-6,
793,7,27,2023,12,18,52,495,-2156,-751,3322,-91,125,-13,
794,7,27,2023,12,18,52,505,-2154,-764,3348,-119,154,-24,
795,7,27,2023,12,18,52,515,-2168,-779,3361,-143,209,-39,
796,7,27,2023,12,18,52,525,-2131,-808,3369,-162,286,-51,
797,7,27,2023,12,18,52,535,-2118,-825,3369,-176,382,-47,
798,7,27,2023,12,18,52,545,-2144,-803,3352,-191,484,-31,
799,7,27,2023,12,18,52,555,-2142,-768,3345,-210,586,-25,
800,7,27,2023,12,18,52,565,-2114,-808,3361,-242,687,-15,
801,7,27,2023,12,18,52,575,-2130,-888,3345,-273,790,27,
802,7,27,2023,12,18,52,585,-2201,-841,3313,-287,899,68,
803,7,27,2023,12,18,52,595,-2211,-824,3322,-313,1019,86,
804,7,27,2023,12,18,52,605,-2198,-788,3325,-340,1165,98,
805,7,27,2023,12,18,52,615,-2120,-795,3324,-386,1342,118,
806,7,27,2023,12,18,52,625,-2056,-937,3377,-431,1557,193,
807,7,27,2023,12,18,52,635,-2188,-1018,3306,-455,1839,329,
808,7,27,2023,12,18,52,645,-2108,-1314,3356,-490,2161,498,
809,7,27,2023,12,18,52,655,-2072,-1116,3506,-380,2517,691,
810,7,27,2023,12,18,52,665,-2105,-1349,3570,-363,2907,912,
811,7,27,2023,12,18,52,675,-2117,-1286,3676,-270,3342,1155,
812,7,27,2023,12,18,52,685,-2310,-1131,3586,-200,3857,1424,
813,7,27,2023,12,18,52,695,-2373,-1415,3613,-217,4438,1718,
814,7,27,2023,12,18,52,705,-2449,-1731,3785,140,4968,2093,
815,7,27,2023,12,18,52,715,-2601,-946,3833,588,5439,2438,
816,7,27,2023,12,18,52,725,-3068,-1613,4022,616,5808,2762,
817,7,27,2023,12,18,52,735,-3157,-2268,3671,1279,6042,3209,
818,7,27,2023,12,18,52,745,-4174,-3331,4187,1750,6135,3865,
819,7,27,2023,12,18,52,755,-4083,-4331,3554,2570,5733,4850,
820,7,27,2023,12,18,52,765,-3709,-2389,3079,3749,5417,5630,
821,7,27,2023,12,18,52,775,-4242,-2591,3591,3571,5198,5926,
822,7,27,2023,12,18,52,785,-4450,-3370,5246,3217,4346,5780,
823,7,27,2023,12,18,52,795,-2270,-5364,6281,2773,2495,4756,
824,7,27,2023,12,18,52,805,-1372,-6852,4933,1548,909,2307,
825,7,27,2023,12,18,52,815,631,-6995,3418,456,132,-265,
826,7,27,2023,12,18,52,825,1458,-6149,2588,791,164,-1761,
827,7,27,2023,12,18,52,835,358,-4621,3663,1201,561,-2797,
828,7,27,2023,12,18,52,845,-178,-3783,4570,839,228,-3797,
829,7,27,2023,12,18,52,855,-62,-3393,4742,392,-534,-4474,
830,7,27,2023,12,18,52,865,-173,-2646,4743,289,-1254,-4698,
831,7,27,2023,12,18,52,875,-470,-1831,4886,182,-1947,-4688,
832,7,27,2023,12,18,52,885,-635,-1292,4947,-115,-2679,-4578,
833,7,27,2023,12,18,52,895,-899,-981,5013,-459,-3387,-4366,
834,7,27,2023,12,18,52,905,-1215,-787,5042,-747,-4056,-4101,
835,7,27,2023,12,18,52,915,-1492,-683,4993,-978,-4668,-3836,
836,7,27,2023,12,18,52,925,-1785,-704,4915,-1160,-5185,-3620,
837,7,27,2023,12,18,52,935,-2108,-829,4793,-1269,-5603,-3469,
838,7,27,2023,12,18,52,945,-2399,-984,4656,-1280,-5926,-3380,
839,7,27,2023,12,18,52,955,-2646,-1094,4529,-1222,-6144,-3354,
840,7,27,2023,12,18,52,965,-2895,-1196,4452,-1174,-6249,-3407,
841,7,27,2023,12,18,52,975,-3113,-1362,4371,-1157,-6261,-3531,
842,7,27,2023,12,18,52,985,-3327,-1548,4286,-1117,-6202,-3693,
843,7,27,2023,12,18,52,995,-3579,-1666,4207,-998,-6076,-3904,
844,7,27,2023,12,18,53,5,-3764,-1759,4036,-796,-5909,-4150,
845,7,27,2023,12,18,53,15,-3847,-1749,3831,-508,-5676,-4368,
846,7,27,2023,12,18,53,25,-4107,-1626,3809,-236,-5367,-4534,
847,7,27,2023,12,18,53,35,-4446,-1537,3850,-75,-5113,-4710,
848,7,27,2023,12,18,53,45,-4638,-1289,3856,49,-4956,-4886,
849,7,27,2023,12,18,53,55,-4743,-851,3700,178,-4844,-4986,
850,7,27,2023,12,18,53,65,-4689,-321,3264,345,-4686,-4853,
851,7,27,2023,12,18,53,85,-4660,612,2402,437,-4010,-3581,
852,7,27,2023,12,18,53,95,-4676,567,2026,187,-3681,-2799,
853,7,27,2023,12,18,53,105,-4711,305,1685,-76,-3356,-2109,
854,7,27,2023,12,18,53,115,-4781,125,1294,-252,-2983,-1584,
855,7,27,2023,12,18,53,125,-4941,88,800,-386,-2548,-1253,
856,7,27,2023,12,18,53,135,-5153,133,301,-516,-2064,-1069,
857,7,27,2023,12,18,53,145,-5292,137,-86,-595,-1583,-954,
858,7,27,2023,12,18,53,155,-5577,146,-260,-525,-1125,-857,
859,7,27,2023,12,18,53,165,-5510,228,-576,-275,-742,-734,
860,7,27,2023,12,18,53,175,-5296,473,-868,106,-269,-498,
861,7,27,2023,12,18,53,185,-5404,788,-769,409,328,-205,
862,7,27,2023,12,18,53,195,-5686,923,-400,525,839,41,
863,7,27,2023,12,18,53,205,-5850,1013,55,580,1133,317,
864,7,27,2023,12,18,53,215,-5726,1325,368,575,1275,679,
865,7,27,2023,12,18,53,225,-4108,82,422,409,1381,1080,
866,7,27,2023,12,18,53,235,1708,-2623,3225,2592,2181,2069,
867,7,27,2023,12,18,53,245,1750,-2745,7544,5246,2869,3536,
868,7,27,2023,12,18,53,255,2544,-1698,3335,3998,3434,2576,
869,7,27,2023,12,18,53,265,319,2032,2020,3011,5620,1333,
870,7,27,2023,12,18,53,275,-3046,3988,5272,1785,7229,759,
871,7,27,2023,12,18,53,285,-6193,4062,6639,635,7126,1495,
872,7,27,2023,12,18,53,295,-11455,-4393,8465,203,5430,1824,
873,7,27,2023,12,18,53,305,-6802,-5983,4132,1438,2855,934,
874,7,27,2023,12,18,53,315,-3050,1629,5179,2323,2567,507,
875,7,27,2023,12,18,53,325,-2799,2594,5152,1723,2056,819,
876,7,27,2023,12,18,53,335,-2273,-1881,3148,901,1447,731,
877,7,27,2023,12,18,53,345,-2824,-1944,3890,940,1470,374,
878,7,27,2023,12,18,53,355,-2856,-195,3984,962,1117,402,
879,7,27,2023,12,18,53,365,-2583,-469,3631,615,594,395,
880,7,27,2023,12,18,53,375,-2471,-1021,3510,372,334,280,
881,7,27,2023,12,18,53,385,-2449,-732,3718,234,204,193,
882,7,27,2023,12,18,53,395,-2440,-480,3728,-1,91,97,
883,7,27,2023,12,18,53,405,-2007,-744,3501,-226,119,-14,
884,7,27,2023,12,18,53,415,-2055,-956,3428,-294,251,-71,
885,7,27,2023,12,18,53,425,-2206,-1133,3347,-271,279,-57,
886,7,27,2023,12,18,53,435,-2051,-1164,3338,-200,259,4,
887,7,27,2023,12,18,53,445,-2039,-1010,3391,-122,267,86,
888,7,27,2023,12,18,53,455,-2128,-922,3389,-76,286,145,
889,7,27,2023,12,18,53,465,-2117,-950,3361,-51,290,171,
890,7,27,2023,12,18,53,475,-2152,-921,3360,-19,284,191,
891,7,27,2023,12,18,53,485,-2130,-897,3364,0,271,201,
892,7,27,2023,12,18,53,495,-2107,-808,3401,-12,266,191,
893,7,27,2023,12,18,53,505,-2114,-778,3406,-61,290,165,
894,7,27,2023,12,18,53,515,-2160,-796,3396,-108,332,128,
895,7,27,2023,12,18,53,525,-2172,-853,3360,-151,356,99,
896,7,27,2023,12,18,53,535,-2160,-942,3322,-161,348,98,
897,7,27,2023,12,18,53,545,-2177,-989,3293,-140,322,114,
898,7,27,2023,12,18,53,555,-2184,-994,3286,-105,269,146,
899,7,27,2023,12,18,53,565,-2153,-981,3284,-62,199,181,
900,7,27,2023,12,18,53,575,-2135,-956,3289,-25,143,217,
901,7,27,2023,12,18,53,585,-2158,-927,3310,12,97,237,
902,7,27,2023,12,18,53,595,-2182,-897,3300,46,61,251,
903,7,27,2023,12,18,53,605,-2160,-865,3286,62,21,257,
904,7,27,2023,12,18,53,615,-2142,-841,3297,80,-10,271,
905,7,27,2023,12,18,53,625,-2129,-836,3306,79,-14,275,
906,7,27,2023,12,18,53,635,-2101,-838,3330,46,11,263,
907,7,27,2023,12,18,53,645,-2072,-830,3353,12,72,246,
908,7,27,2023,12,18,53,655,-2053,-846,3358,-49,169,218,
909,7,27,2023,12,18,53,665,-2085,-856,3327,-80,269,203,
910,7,27,2023,12,18,53,675,-2080,-826,3330,-83,343,225,
911,7,27,2023,12,18,53,685,-2086,-841,3329,-85,415,230,
912,7,27,2023,12,18,53,695,-2119,-893,3338,-92,515,232,
913,7,27,2023,12,18,53,705,-2077,-895,3356,-104,644,239,
914,7,27,2023,12,18,53,715,-2110,-865,3368,-112,795,267,
915,7,27,2023,12,18,53,725,-2162,-824,3354,-138,949,299,
916,7,27,2023,12,18,53,735,-2131,-784,3349,-195,1103,333,
917,7,27,2023,12,18,53,745,-2023,-968,3347,-315,1282,409,
918,7,27,2023,12,18,53,755,-2065,-967,3376,-329,1525,519,
919,7,27,2023,12,18,53,765,-2130,-833,3377,-314,1829,603,
920,7,27,2023,12,18,53,775,-2185,-821,3337,-326,2151,644,
921,7,27,2023,12,18,53,785,-2331,-730,3278,-401,2471,706,
922,7,27,2023,12,18,53,795,-2306,-753,3292,-536,2825,768,
923,7,27,2023,12,18,53,805,-2266,-876,3290,-641,3270,820,
924,7,27,2023,12,18,53,815,-2266,-854,3259,-739,3750,894,
925,7,27,2023,12,18,53,825,-2115,-1142,3265,-882,4301,1005,
926,7,27,2023,12,18,53,835,-2255,-1055,3369,-867,4926,1153,
927,7,27,2023,12,18,53,845,-2437,-868,3316,-872,5554,1283,
928,7,27,2023,12,18,53,855,-2434,-893,3333,-911,6295,1401,
929,7,27,2023,12,18,53,865,-2446,-939,3383,-926,7222,1556,
930,7,27,2023,12,18,53,875,-2470,-1083,3605,-1069,8232,1764,
931,7,27,2023,12,18,53,885,-2616,-1012,3541,-1197,9273,2036,
932,7,27,2023,12,18,53,895,-3056,-1005,3645,-1308,10374,2247,
933,7,27,2023,12,18,53,905,-3315,-1140,4093,-1538,11431,2359,
934,7,27,2023,12,18,53,915,-4701,-1534,4856,-2009,12442,2425,
935,7,27,2023,12,18,53,925,-4955,-1576,4106,-2634,13031,2554,
936,7,27,2023,12,18,53,945,-6884,-731,5812,-3797,13060,3011,
937,7,27,2023,12,18,53,955,-5780,-2060,4496,-5709,11678,2568,
938,7,27,2023,12,18,53,965,-5671,-3093,2652,-7419,10693,2541,
939,7,27,2023,12,18,53,975,-5570,-2191,3119,-8381,9795,3273,
940,7,27,2023,12,18,53,985,-5990,-2205,4167,-9393,8116,3807,
941,7,27,2023,12,18,53,995,-4486,-3966,9783,-9613,5120,4259,
942,7,27,2023,12,18,54,5,-8010,-6630,11318,-8256,444,4684,
943,7,27,2023,12,18,54,15,-2329,-5763,8063,-5814,-3930,4759,
944,7,27,2023,12,18,54,25,918,-3754,3630,-3617,-6731,4736,
945,7,27,2023,12,18,54,35,1917,-2200,1923,-2616,-6699,4785,
946,7,27,2023,12,18,54,45,1429,-1437,1500,-2859,-6125,4555,
947,7,27,2023,12,18,54,55,542,-1728,1876,-3964,-5766,3672,
948,7,27,2023,12,18,54,65,213,-2598,2114,-4913,-5720,2322,
949,7,27,2023,12,18,54,75,-121,-3167,2522,-5014,-5733,872,
950,7,27,2023,12,18,54,85,-668,-2975,3025,-4381,-5807,-587,
951,7,27,2023,12,18,54,95,-1181,-1920,3606,-3675,-6001,-2035,
952,7,27,2023,12,18,54,105,-1500,-665,4131,-3430,-6370,-3378,
953,7,27,2023,12,18,54,115,-1673,455,4439,-3569,-6844,-4432,
954,7,27,2023,12,18,54,125,-1824,1512,4539,-3795,-7302,-4993,
955,7,27,2023,12,18,54,135,-2189,2564,4752,-3925,-7672,-4886,
956,7,27,2023,12,18,54,145,-2749,3718,5205,-4062,-7995,-4178,
957,7,27,2023,12,18,54,155,-3472,4642,5660,-4488,-8408,-3163,
958,7,27,2023,12,18,54,165,-4138,4794,5796,-5180,-8987,-2035,
959,7,27,2023,12,18,54,175,-4658,4344,5653,-5754,-9606,-854,
960,7,27,2023,12,18,54,185,-5017,3771,5314,-6040,-10115,199,
961,7,27,2023,12,18,54,195,-5145,3213,4845,-6195,-10418,876,
962,7,27,2023,12,18,54,205,-5063,2534,4466,-6303,-10435,1132,
963,7,27,2023,12,18,54,215,-4994,1956,4389,-6283,-10164,1100,
964,7,27,2023,12,18,54,225,-5055,1651,4514,-6184,-9752,927,
965,7,27,2023,12,18,54,235,-5280,1525,4725,-6147,-9310,719,
966,7,27,2023,12,18,54,245,-5613,1516,4761,-6258,-8884,495,
967,7,27,2023,12,18,54,255,-5708,1663,4369,-6513,-8449,181,
968,7,27,2023,12,18,54,265,-5605,1702,3851,-6713,-7865,-224,
969,7,27,2023,12,18,54,275,-5827,1695,3671,-6455,-7097,-606,
970,7,27,2023,12,18,54,285,-6406,2107,3861,-5617,-6346,-922,
971,7,27,2023,12,18,54,295,-6866,2958,4002,-4525,-5856,-1196,
972,7,27,2023,12,18,54,305,-6864,3457,3684,-3431,-5640,-1319,
973,7,27,2023,12,18,54,315,-6464,3266,3045,-2219,-5466,-1116,
974,7,27,2023,12,18,54,325,-6023,2667,2280,-851,-5179,-602,
975,7,27,2023,12,18,54,335,-5653,2162,1453,342,-4813,-129,
976,7,27,2023,12,18,54,345,-5575,2077,760,955,-4382,2,
977,7,27,2023,12,18,54,355,-5953,1598,-46,970,-3919,-129,
978,7,27,2023,12,18,54,365,-6072,1022,-1167,946,-3459,-52,
979,7,27,2023,12,18,54,375,-5661,644,-3515,1081,-2701,450,
980,7,27,2023,12,18,54,385,-5177,2552,-6584,2261,-566,2264,
981,7,27,2023,12,18,54,395,-6925,3930,-5598,3054,2266,4313,
982,7,27,2023,12,18,54,405,-5403,1691,31,3166,4029,5250,
983,7,27,2023,12,18,54,415,-4241,-4344,8433,3074,3450,4764,
984,7,27,2023,12,18,54,425,-521,-6943,6058,2860,2202,3116,
985,7,27,2023,12,18,54,435,524,-2167,1168,3169,3317,2140,
986,7,27,2023,12,18,54,445,-3230,2701,4318,2435,4975,851,
987,7,27,2023,12,18,54,455,-7475,4525,8103,1270,4575,202,
988,7,27,2023,12,18,54,465,-7643,101,6167,826,2104,1165,
989,7,27,2023,12,18,54,475,-3334,-3837,2817,663,566,930,
990,7,27,2023,12,18,54,485,-1887,-361,4256,1005,978,88,
991,7,27,2023,12,18,54,495,-2423,2291,4637,757,1178,183,
992,7,27,2023,12,18,54,505,-3059,-720,3727,173,742,304,
993,7,27,2023,12,18,54,515,-2459,-1997,3133,57,441,86,
994,7,27,2023,12,18,54,525,-2172,-630,3474,154,378,36,
995,7,27,2023,12,18,54,535,-2252,-900,3416,92,157,113,
996,7,27,2023,12,18,54,545,-1930,-1725,3144,103,-43,170,
997,7,27,2023,12,18,54,555,-2194,-1164,3454,293,-40,233,
998,7,27,2023,12,18,54,565,-2447,-600,3531,275,-174,248,
999,7,27,2023,12,18,54,575,-2231,-893,3422,189,-350,215,
1000,7,27,2023,12,18,54,585,-2108,-725,3507,164,-357,150,
1001,7,27,2023,12,18,54,595,-2094,-652,3532,96,-280,115,
1002,7,27,2023,12,18,54,605,-2061,-709,3523,23,-189,69,
1003,7,27,2023,12,18,54,615,-2100,-734,3501,-36,-115,20,
1004,7,27,2023,12,18,54,625,-2074,-901,3426,-64,-75,4,
1005,7,27,2023,12,18,54,635,-2110,-992,3413,-39,-68,27,
1006,7,27,2023,12,18,54,645,-2114,-1019,3403,17,-82,70,
1007,7,27,2023,12,18,54,655,-2075,-997,3393,81,-85,116,
1008,7,27,2023,12,18,54,665,-1987,-919,3388,125,-81,153,
1009,7,27,2023,12,18,54,675,-1961,-897,3423,146,-70,180,
1010,7,27,2023,12,18,54,685,-2152,-757,3495,141,-59,174,
1011,7,27,2023,12,18,54,695,-2127,-756,3454,99,-80,134,
1012,7,27,2023,12,18,54,705,-2045,-865,3406,81,-99,101,
1013,7,27,2023,12,18,54,715,-2056,-858,3408,88,-101,91,
1014,7,27,2023,12,18,54,725,-2069,-863,3402,87,-100,85,
1015,7,27,2023,12,18,54,735,-2073,-885,3381,94,-109,81,
1016,7,27,2023,12,18,54,745,-2131,-841,3420,116,-150,85,
1017,7,27,2023,12,18,54,755,-2160,-837,3425,136,-225,80,
1018,7,27,2023,12,18,54,765,-2153,-835,3412,140,-304,70,
1019,7,27,2023,12,18,54,775,-2051,-838,3398,155,-375,67,
1020,7,27,2023,12,18,54,785,-1990,-875,3407,185,-404,71,
1021,7,27,2023,12,18,54,805,-1968,-793,3422,206,-424,62,
1022,7,27,2023,12,18,54,815,-1991,-761,3458,204,-428,59,
1023,7,27,2023,12,18,54,825,-2051,-679,3504,177,-436,45,
1024,7,27,2023,12,18,54,835,-1954,-739,3485,119,-436,26,
1025,7,27,2023,12,18,54,845,-1882,-813,3475,94,-397,18,
1026,7,27,2023,12,18,54,855,-1863,-817,3467,79,-335,13,
1027,7,27,2023,12,18,54,865,-1894,-791,3481,68,-285,16,
1028,7,27,2023,12,18,54,875,-1986,-719,3497,61,-266,20,
1029,7,27,2023,12,18,54,885,-1933,-680,3445,55,-291,35,
1030,7,27,2023,12,18,54,895,-1879,-710,3452,47,-299,56,
1031,7,27,2023,12,18,54,905,-1863,-749,3482,40,-281,54,
1032,7,27,2023,12,18,54,915,-1808,-856,3480,35,-233,55,
1033,7,27,2023,12,18,54,925,-1780,-908,3454,46,-158,69,
1034,7,27,2023,12,18,54,935,-1850,-852,3458,76,-93,87,
1035,7,27,2023,12,18,54,945,-1850,-834,3486,87,-47,99,
1036,7,27,2023,12,18,54,955,-1837,-939,3451,116,-17,121,
1037,7,27,2023,12,18,54,965,-1794,-870,3395,161,-12,150,
1038,7,27,2023,12,18,54,975,-1660,-965,3474,191,-8,197,
1039,7,27,2023,12,18,54,985,-2092,-772,3486,215,33,227,
1040,7,27,2023,12,18,54,995,-1798,-702,3482,174,15,219,
1041,7,27,2023,12,18,55,5,-1840,-677,3517,125,38,198,
1042,7,27,2023,12,18,55,15,-2005,-760,3486,83,70,182,
1043,7,27,2023,12,18,55,25,-1980,-640,3534,39,87,151,
1044,7,27,2023,12,18,55,35,-1978,-701,3481,-12,73,126,
1045,7,27,2023,12,18,55,45,-1802,-766,3497,-69,78,112,
1046,7,27,2023,12,18,55,55,-1861,-734,3473,-97,122,121,
1047,7,27,2023,12,18,55,65,-1762,-687,3478,-143,161,128,
1048,7,27,2023,12,18,55,75,-1860,-749,3537,-191,211,140,
1049,7,27,2023,12,18,55,85,-1950,-780,3547,-206,281,143,
1050,7,27,2023,12,18,55,95,-1936,-835,3542,-196,365,153,
1051,7,27,2023,12,18,55,105,-1907,-880,3558,-186,464,183,
1052,7,27,2023,12,18,55,115,-1877,-915,3560,-179,598,224,
1053,7,27,2023,12,18,55,125,-1882,-874,3545,-165,757,267,
1054,7,27,2023,12,18,55,135,-1992,-810,3511,-163,901,317,
1055,7,27,2023,12,18,55,145,-1978,-848,3516,-174,1017,350,
1056,7,27,2023,12,18,55,155,-1952,-845,3528,-184,1147,372,
1057,7,27,2023,12,18,55,165,-1983,-793,3499,-183,1286,408,
1058,7,27,2023,12,18,55,175,-1979,-687,3486,-226,1384,469,
1059,7,27,2023,12,18,55,185,-2044,-535,3469,-289,1482,524,
1060,7,27,2023,12,18,55,195,-2033,-570,3492,-441,1618,569,
1061,7,27,2023,12,18,55,205,-1889,-1147,3379,-515,1834,721,
1062,7,27,2023,12,18,55,215,-2122,-349,3524,-525,2229,831,
1063,7,27,2023,12,18,55,225,-2301,-601,3488,-797,2528,931,
1064,7,27,2023,12,18,55,235,-2376,-687,3463,-1009,2722,945,
1065,7,27,2023,12,18,55,245,-2370,-642,3370,-1025,2825,912,
1066,7,27,2023,12,18,55,255,-2371,-731,3378,-1076,2858,927,
1067,7,27,2023,12,18,55,265,-2369,-804,3363,-1075,2859,965,
1068,7,27,2023,12,18,55,275,-2421,-788,3619,-1084,2847,1011,
1069,7,27,2023,12,18,55,285,-2551,-445,3482,-1320,2802,1087,
1070,7,27,2023,12,18,55,295,-2542,-328,3349,-1879,2696,1153,
1071,7,27,2023,12,18,55,305,-2438,-753,3375,-2453,2479,1312,
1072,7,27,2023,12,18,55,315,-2319,-1082,3315,-2825,2214,1591,
1073,7,27,2023,12,18,55,325,-2473,-957,3416,-3073,1941,1930,
1074,7,27,2023,12,18,55,335,-2503,-1130,3329,-3351,1541,2290,
1075,7,27,2023,12,18,55,345,-2395,-1446,3133,-3573,1169,2569,
1076,7,27,2023,12,18,55,355,-2624,-1078,3344,-3618,849,2810,
1077,7,27,2023,12,18,55,365,-2496,-718,3492,-3702,357,3144,
1078,7,27,2023,12,18,55,375,-1336,-1152,4469,-3563,-224,3612,
1079,7,27,2023,12,18,55,385,-972,-810,5768,-2821,-947,4102,
1080,7,27,2023,12,18,55,395,-728,-1049,5627,-2265,-1974,4254,
1081,7,27,2023,12,18,55,405,188,-1648,4641,-2077,-2917,3942,
1082,7,27,2023,12,18,55,415,-32,-1609,4545,-1680,-3294,3625,
1083,7,27,2023,12,18,55,425,-577,-1565,4607,-1456,-3624,3171,
1084,7,27,2023,12,18,55,435,-728,-1627,4242,-1363,-3996,2637,
1085,7,27,2023,12,18,55,445,-1014,-1461,3981,-1170,-4163,2191,
1086,7,27,2023,12,18,55,455,-1368,-1249,3869,-991,-4200,1813,
1087,7,27,2023,12,18,55,465,-1579,-1016,3744,-892,-4181,1496,
1088,7,27,2023,12,18,55,475,-1729,-726,3688,-898,-4110,1241,
1089,7,27,2023,12,18,55,485,-1969,-512,3610,-1020,-4007,1041,
1090,7,27,2023,12,18,55,495,-2169,-365,3407,-1203,-3886,897,
1091,7,27,2023,12,18,55,505,-2307,-250,3131,-1369,-3695,846,
1092,7,27,2023,12,18,55,515,-2523,-274,2915,-1488,-3412,851,
1093,7,27,2023,12,18,55,525,-2808,-302,2715,-1553,-3069,815,
1094,7,27,2023,12,18,55,535,-3013,-354,2496,-1583,-2691,709,
1095,7,27,2023,12,18,55,545,-3547,-416,2573,-1686,-2262,533,
1096,7,27,2023,12,18,55,555,-3983,-706,2529,-1889,-1994,207,
1097,7,27,2023,12,18,55,565,-3776,-1023,2064,-1860,-1843,-181,
1098,7,27,2023,12,18,55,575,-3331,-780,1540,-1552,-1495,-491,
1099,7,27,2023,12,18,55,585,-3099,-480,1331,-1360,-923,-743,
1100,7,27,2023,12,18,55,595,-3319,-1368,96,-1205,-213,-904,
1101,7,27,2023,12,18,55,605,-4475,731,-1106,456,1229,-244,
1102,7,27,2023,12,18,55,615,-6233,1841,122,1235,2343,259,
1103,7,27,2023,12,18,55,625,-5602,1610,-919,1223,2791,458,
1104,7,27,2023,12,18,55,635,-8091,1678,4507,1567,3288,909,
1105,7,27,2023,12,18,55,645,-7880,709,7900,1555,1090,798,
1106,7,27,2023,12,18,55,665,-1453,-2245,3090,292,-827,364,
1107,7,27,2023,12,18,55,675,-2317,-1137,3828,395,-387,76,
1108,7,27,2023,12,18,55,685,-2415,145,3435,315,-333,53,
1109,7,27,2023,12,18,55,695,-2283,-543,3478,76,-374,8,
1110,7,27,2023,12,18,55,705,-2040,-1110,3333,-46,-285,-88,
1111,7,27,2023,12,18,55,715,-2214,-886,3378,-23,-179,-80,
1112,7,27,2023,12,18,55,725,-2232,-765,3344,-7,-169,-44,
1113,7,27,2023,12,18,55,735,-2155,-840,3367,-12,-176,-43,
1114,7,27,2023,12,18,55,745,-2152,-918,3380,1,-166,-25,
1115,7,27,2023,12,18,55,755,-2227,-839,3345,13,-145,1,
1116,7,27,2023,12,18,55,765,-2189,-794,3352,22,-143,9,
1117,7,27,2023,12,18,55,775,-2133,-812,3351,35,-148,17,
1118,7,27,2023,12,18,55,785,-2151,-784,3350,48,-147,16,
1119,7,27,2023,12,18,55,795,-2147,-750,3361,48,-159,15,
1120,7,27,2023,12,18,55,805,-2137,-752,3365,40,-169,5,
1121,7,27,2023,12,18,55,815,-2156,-773,3366,34,-173,-9,
1122,7,27,2023,12,18,55,825,-2151,-796,3357,36,-169,-13,
1123,7,27,2023,12,18,55,835,-2127,-804,3357,35,-169,-13,
1124,7,27,2023,12,18,55,845,-2101,-780,3361,41,-172,-9,
1125,7,27,2023,12,18,55,855,-2067,-779,3376,38,-163,0,
1126,7,27,2023,12,18,55,865,-2102,-791,3376,32,-159,4,
1127,7,27,2023,12,18,55,875,-2136,-793,3380,36,-158,11,
1128,7,27,2023,12,18,55,885,-2106,-796,3387,40,-150,17,
1129,7,27,2023,12,18,55,895,-2099,-774,3385,43,-125,21,
1130,7,27,2023,12,18,55,905,-2090,-773,3386,38,-104,24,
1131,7,27,2023,12,18,55,915,-2092,-783,3391,34,-88,28,
1132,7,27,2023,12,18,55,925,-2139,-770,3390,34,-73,29,
1133,7,27,2023,12,18,55,935,-2140,-753,3388,29,-65,21,
1134,7,27,2023,12,18,55,945,-2145,-751,3380,29,-62,17,
1135,7,27,2023,12,18,55,955,-2123,-750,3386,21,-66,10,
1136,7,27,2023,12,18,55,965,-2109,-754,3391,12,-62,6,
1137,7,27,2023,12,18,55,975,-2138,-754,3389,9,-57,-1,
1138,7,27,2023,12,18,55,985,-2122,-753,3396,9,-62,-5,
1139,7,27,2023,12,18,55,995,-2101,-769,3387,4,-64,-8,
1140,7,27,2023,12,18,56,5,-2116,-773,3381,3,-57,-8,
1141,7,27,2023,12,18,56,15,-2112,-777,3383,6,-58,-8,
1142,7,27,2023,12,18,56,25,-2090,-780,3395,7,-62,-4,
1143,7,27,2023,12,18,56,35,-2092,-766,3384,11,-58,1,
1144,7,27,2023,12,18,56,45,-2100,-761,3383,7,-55,-3,
1145,7,27,2023,12,18,56,55,-2102,-761,3389,4,-53,-1,
1146,7,27,2023,12,18,56,65,-2101,-754,3389,2,-51,0,
1147,7,27,2023,12,18,56,75,-2061,-744,3390,-4,-52,-1,
1148,7,27,2023,12,18,56,85,-2037,-770,3401,-19,-34,-1,
1149,7,27,2023,12,18,56,95,-2098,-768,3400,-27,-17,0,
1150,7,27,2023,12,18,56,105,-2125,-778,3383,-26,-14,4,
1151,7,27,2023,12,18,56,115,-2118,-772,3386,-23,-20,5,
1152,7,27,2023,12,18,56,125,-2103,-779,3390,-21,-22,0,
1153,7,27,2023,12,18,56,135,-2091,-775,3394,-18,-21,5,
1154,7,27,2023,12,18,56,145,-2093,-779,3385,-18,-14,9,
1155,7,27,2023,12,18,56,155,-2094,-779,3395,-16,-13,9,
1156,7,27,2023,12,18,56,165,-2109,-778,3389,-7,-16,13,
1157,7,27,2023,12,18,56,175,-2105,-772,3383,-3,-22,13,
1158,7,27,2023,12,18,56,185,-2097,-774,3394,-2,-27,13,
1159,7,27,2023,12,18,56,195,-2089,-766,3387,1,-24,14,
1160,7,27,2023,12,18,56,205,-2079,-769,3392,0,-16,14,
1161,7,27,2023,12,18,56,215,-2101,-764,3394,-2,-10,13,
1162,7,27,2023,12,18,56,225,-2113,-765,3391,-6,-8,11,
1163,7,27,2023,12,18,56,235,-2099,-770,3391,-4,-5,11,
1164,7,27,2023,12,18,56,245,-2093,-769,3398,-5,-3,12,
1165,7,27,2023,12,18,56,255,-2098,-756,3393,-5,-2,11,
1166,7,27,2023,12,18,56,265,-2103,-758,3392,-8,-3,6,
1167,7,27,2023,12,18,56,275,-2105,-767,3396,-10,-9,3,
1168,7,27,2023,12,18,56,285,-2107,-770,3387,-9,-14,5,
1169,7,27,2023,12,18,56,295,-2090,-763,3389,-11,-16,6,
1170,7,27,2023,12,18,56,305,-2085,-765,3391,-14,-16,6,
1171,7,27,2023,12,18,56,315,-2079,-772,3384,-12,-17,5,
1172,7,27,2023,12,18,56,325,-2087,-768,3394,-9,-13,8,
1173,7,27,2023,12,18,56,335,-2102,-773,3392,-12,-10,13,
1174,7,27,2023,12,18,56,345,-2099,-777,3392,-13,-8,9,
1175,7,27,2023,12,18,56,355,-2100,-762,3389,-13,-10,12,
1176,7,27,2023,12,18,56,365,-2105,-761,3389,-8,-17,10,
1177,7,27,2023,12,18,56,375,-2100,-763,3390,-5,-22,2,
1178,7,27,2023,12,18,56,385,-2101,-763,3384,-9,-24,7,
1179,7,27,2023,12,18,56,395,-2097,-766,3394,-7,-20,8,
1180,7,27,2023,12,18,56,405,-2092,-766,3398,-5,-19,7,
1181,7,27,2023,12,18,56,415,-2072,-772,3387,-8,-18,9,
1182,7,27,2023,12,18,56,425,-2084,-759,3386,-9,-14,14,
1183,7,27,2023,12,18,56,435,-2083,-759,3392,-10,-11,11,
1184,7,27,2023,12,18,56,445,-2090,-775,3394,-15,-9,12,
1185,7,27,2023,12,18,56,455,-2103,-771,3392,-19,-1,12,
1186,7,27,2023,12,18,56,465,-2104,-767,3380,-16,0,14,
1187,7,27,2023,12,18,56,475,-2110,-766,3389,-15,-8,13,
1188,7,27,2023,12,18,56,485,-2106,-769,3391,-18,-8,10,
1189,7,27,2023,12,18,56,495,-2097,-772,3389,-15,-9,11,
1190,7,27,2023,12,18,56,505,-2091,-766,3385,-10,-10,11,
1191,7,27,2023,12,18,56,525,-2104,-774,3389,-11,-17,9,
1192,7,27,2023,12,18,56,535,-2094,-774,3383,-11,-24,4,
1193,7,27,2023,12,18,56,545,-2091,-771,3387,-9,-27,9,
1194,7,27,2023,12,18,56,555,-2093,-762,3394,-9,-24,9,
1195,7,27,2023,12,18,56,565,-2079,-768,3390,-13,-19,8,
1196,7,27,2023,12,18,56,575,-2094,-764,3395,-13,-16,11,
1197,7,27,2023,12,18,56,585,-2097,-768,3394,-15,-16,9,
1198,7,27,2023,12,18,56,595,-2098,-770,3382,-11,-12,5,
1199,7,27,2023,12,18,56,605,-2082,-764,3395,-13,-17,6,
1200,7,27,2023,12,18,56,615,-2075,-768,3388,-16,-18,9,
1201,7,27,2023,12,18,56,625,-2097,-757,3391,-19,-12,9,
1202,7,27,2023,12,18,56,635,-2098,-752,3387,-21,-11,9,
1203,7,27,2023,12,18,56,645,-2101,-767,3388,-21,-10,6,
1204,7,27,2023,12,18,56,655,-2086,-764,3387,-19,-14,1,
1205,7,27,2023,12,18,56,665,-2100,-764,3384,-19,-22,1,
1206,7,27,2023,12,18,56,675,-2103,-768,3393,-21,-34,0,
1207,7,27,2023,12,18,56,685,-2097,-764,3408,-18,-44,-2,
1208,7,27,2023,12,18,56,695,-2084,-773,3391,-14,-52,-2,
1209,7,27,2023,12,18,56,705,-2087,-791,3395,-20,-44,-3,
1210,7,27,2023,12,18,56,715,-2086,-788,3404,-22,-39,-2,
1211,7,27,2023,12,18,56,725,-2104,-778,3387,-16,-33,6,
1212,7,27,2023,12,18,56,735,-2090,-762,3392,-13,-34,5,
1213,7,27,2023,12,18,56,745,-2066,-780,3405,-13,-33,6,
1214,7,27,2023,12,18,56,755,-2052,-784,3389,-16,-28,8,
1215,7,27,2023,12,18,56,765,-2047,-783,3391,-23,-20,14,
1216,7,27,2023,12,18,56,775,-2085,-779,3406,-25,-6,24,
1217,7,27,2023,12,18,56,785,-2101,-745,3404,-24,3,23,
1218,7,27,2023,12,18,56,795,-2090,-770,3400,-29,9,15,
1219,7,27,2023,12,18,56,805,-2074,-793,3389,-28,22,14,
1220,7,27,2023,12,18,56,815,-2075,-785,3390,-24,30,20,
1221,7,27,2023,12,18,56,825,-2082,-784,3395,-29,33,25,
1222,7,27,2023,12,18,56,835,-2083,-788,3399,-26,36,29,
1223,7,27,2023,12,18,56,845,-2083,-787,3399,-19,44,36,
1224,7,27,2023,12,18,56,855,-2092,-779,3397,-11,49,40,
1225,7,27,2023,12,18,56,865,-2107,-766,3392,-9,56,42,
1226,7,27,2023,12,18,56,875,-2102,-758,3388,-6,51,41,
1227,7,27,2023,12,18,56,885,-2065,-770,3394,-10,52,44,
1228,7,27,2023,12,18,56,895,-2076,-777,3393,-16,67,45,
1229,7,27,2023,12,18,56,905,-2104,-758,3387,-18,75,46,
1230,7,27,2023,12,18,56,915,-2111,-768,3382,-28,80,48,
1231,7,27,2023,12,18,56,925,-2124,-772,3387,-27,87,47,
1232,7,27,2023,12,18,56,935,-2114,-764,3379,-26,95,40,
1233,7,27,2023,12,18,56,945,-2108,-772,3375,-29,95,36,
1234,7,27,2023,12,18,56,955,-2124,-772,3372,-26,89,42,
1235,7,27,2023,12,18,56,965,-2122,-765,3380,-24,75,39,
1236,7,27,2023,12,18,56,975,-2125,-780,3380,-22,68,38,
1237,7,27,2023,12,18,56,985,-2128,-771,3377,-16,64,39,
1238,7,27,2023,12,18,56,995,-2120,-760,3378,-14,57,36,
1239,7,27,2023,12,18,57,5,-2122,-764,3374,-13,51,35,
1240,7,27,2023,12,18,57,15,-2112,-770,3367,-10,46,36,
1241,7,27,2023,12,18,57,25,-2111,-769,3371,-13,47,35,
1242,7,27,2023,12,18,57,35,-2131,-770,3379,-14,51,32,
1243,7,27,2023,12,18,57,45,-2126,-771,3375,-14,46,32,
1244,7,27,2023,12,18,57,55,-2138,-763,3369,-13,40,30,
1245,7,27,2023,12,18,57,65,-2153,-763,3366,-11,32,29,
1246,7,27,2023,12,18,57,75,-2140,-761,3364,-9,17,23,
1247,7,27,2023,12,18,57,85,-2122,-759,3368,-8,4,20,
1248,7,27,2023,12,18,57,95,-2112,-766,3368,-7,-2,17,
1249,7,27,2023,12,18,57,105,-2113,-773,3378,-7,0,20,
1250,7,27,2023,12,18,57,115,-2125,-760,3377,-9,7,18,
1251,7,27,2023,12,18,57,125,-2124,-772,3375,-13,13,20,
1252,7,27,2023,12,18,57,135,-2128,-772,3368,-14,16,16,
1253,7,27,2023,12,18,57,145,-2124,-769,3367,-14,17,17,
1254,7,27,2023,12,18,57,155,-2110,-776,3375,-15,17,19,
1255,7,27,2023,12,18,57,165,-2123,-773,3373,-7,19,22,
1256,7,27,2023,12,18,57,175,-2125,-761,3371,-5,20,24,
1257,7,27,2023,12,18,57,185,-2121,-769,3367,-13,23,23,
1258,7,27,2023,12,18,57,195,-2130,-770,3373,-12,30,26,
1259,7,27,2023,12,18,57,205,-2138,-761,3363,-13,31,25,
1260,7,27,2023,12,18,57,215,-2134,-768,3364,-15,27,23,
1261,7,27,2023,12,18,57,225,-2133,-760,3373,-16,28,27,
1262,7,27,2023,12,18,57,235,-2129,-775,3369,-21,28,26,
1263,7,27,2023,12,18,57,245,-2140,-776,3369,-24,33,30,
1264,7,27,2023,12,18,57,255,-2142,-757,3366,-23,35,32,
1265,7,27,2023,12,18,57,265,-2153,-770,3362,-21,33,26,
1266,7,27,2023,12,18,57,275,-2131,-768,3361,-19,27,23,
1267,7,27,2023,12,18,57,285,-2128,-767,3370,-16,22,22,
1268,7,27,2023,12,18,57,295,-2134,-758,3369,-13,21,23,
1269,7,27,2023,12,18,57,305,-2129,-760,3371,-16,23,20,
1270,7,27,2023,12,18,57,315,-2139,-777,3369,-19,27,22,
1271,7,27,2023,12,18,57,325,-2144,-782,3358,-18,24,25,
1272,7,27,2023,12,18,57,335,-2152,-770,3355,-11,16,24,
1273,7,27,2023,12,18,57,345,-2149,-790,3359,0,-2,28,
1274,7,27,2023,12,18,57,355,-2121,-752,3375,7,-10,33,
1275,7,27,2023,12,18,57,365,-2119,-743,3371,1,-4,36,
1276,7,27,2023,12,18,57,385,-2141,-765,3362,-12,18,27,
1277,7,27,2023,12,18,57,395,-2133,-764,3364,-15,18,24,
1278,7,27,2023,12,18,57,405,-2145,-769,3365,-13,15,21,
1279,7,27,2023,12,18,57,415,-2157,-770,3354,-10,11,22,
1280,7,27,2023,12,18,57,425,-2145,-769,3355,-8,2,24,
1281,7,27,2023,12,18,57,435,-2140,-770,3360,-2,-6,25,
1282,7,27,2023,12,18,57,445,-2148,-772,3359,3,-16,24,
1283,7,27,2023,12,18,57,455,-2143,-759,3361,5,-22,23,
1284,7,27,2023,12,18,57,465,-2144,-749,3366,5,-23,20,
1285,7,27,2023,12,18,57,475,-2139,-747,3360,0,-23,16,
1286,7,27,2023,12,18,57,485,-2135,-764,3368,-4,-23,11,
1287,7,27,2023,12,18,57,495,-2143,-775,3368,-3,-20,12,
1288,7,27,2023,12,18,57,505,-2138,-772,3367,-3,-17,17,
1289,7,27,2023,12,18,57,515,-2136,-767,3368,-2,-14,18,
1290,7,27,2023,12,18,57,525,-2147,-768,3367,2,-18,15,
1291,7,27,2023,12,18,57,535,-2152,-753,3363,-3,-20,14,
1292,7,27,2023,12,18,57,545,-2150,-760,3357,-2,-20,14,
1293,7,27,2023,12,18,57,555,-2139,-760,3361,-3,-26,17,
1294,7,27,2023,12,18,57,565,-2132,-759,3367,-3,-23,16,
1295,7,27,2023,12,18,57,575,-2131,-764,3367,-5,-19,18,
1296,7,27,2023,12,18,57,585,-2136,-766,3364,-8,-16,19,
1297,7,27,2023,12,18,57,595,-2138,-752,3362,-7,-11,19,
1298,7,27,2023,12,18,57,605,-2131,-750,3371,-7,-9,12,
1299,7,27,2023,12,18,57,615,-2127,-761,3367,-10,-6,11,
1300,7,27,2023,12,18,57,625,-2132,-767,3370,-16,4,12,
1301,7,27,2023,12,18,57,635,-2127,-770,3359,-17,11,13,
1302,7,27,2023,12,18,57,645,-2117,-772,3356,-17,12,20,
1303,7,27,2023,12,18,57,655,-2124,-773,3370,-17,14,27,
1304,7,27,2023,12,18,57,665,-2147,-748,3368,-12,22,32,
1305,7,27,2023,12,18,57,675,-2146,-765,3363,-10,24,31,
1306,7,27,2023,12,18,57,685,-2134,-773,3363,-11,18,29,
1307,7,27,2023,12,18,57,695,-2135,-751,3365,-9,22,37,
1308,7,27,2023,12,18,57,705,-2129,-764,3356,-13,30,36,
1309,7,27,2023,12,18,57,715,-2153,-759,3354,-14,33,34,
1310,7,27,2023,12,18,57,725,-2141,-761,3356,-18,35,33,
1311,7,27,2023,12,18,57,735,-2137,-761,3360,-20,34,37,
1312,7,27,2023,12,18,57,745,-2157,-743,3355,-17,27,37,
1313,7,27,2023,12,18,57,755,-2161,-757,3359,-23,25,28,
1314,7,27,2023,12,18,57,765,-2146,-770,3363,-24,20,23,
1315,7,27,2023,12,18,57,775,-2143,-761,3364,-18,18,26,
1316,7,27,2023,12,18,57,785,-2152,-753,3358,-20,18,25,
1317,7,27,2023,12,18,57,795,-2149,-763,3362,-16,20,21,
1318,7,27,2023,12,18,57,805,-2157,-766,3359,-14,14,22,
1319,7,27,2023,12,18,57,815,-2151,-760,3358,-14,8,24,
1320,7,27,2023,12,18,57,825,-2154,-764,3366,-17,6,24,
1321,7,27,2023,12,18,57,835,-2156,-762,3353,-12,0,25,
1322,7,27,2023,12,18,57,845,-2142,-762,3353,-8,-3,23,
1323,7,27,2023,12,18,57,855,-2151,-748,3362,-7,-3,24,
1324,7,27,2023,12,18,57,865,-2160,-753,3354,-10,2,20,
1325,7,27,2023,12,18,57,875,-2158,-753,3359,-10,1,17,
1326,7,27,2023,12,18,57,885,-2150,-752,3362,-11,6,14,
1327,7,27,2023,12,18,57,895,-2143,-757,3356,-15,13,13,
1328,7,27,2023,12,18,57,905,-2154,-758,3358,-17,17,16,
1329,7,27,2023,12,18,57,915,-2152,-763,3358,-20,14,11,
1330,7,27,2023,12,18,57,925,-2165,-772,3361,-18,16,9,
1331,7,27,2023,12,18,57,935,-2168,-773,3357,-13,15,9,
1332,7,27,2023,12,18,57,945,-2153,-767,3355,-12,13,10,
1333,7,27,2023,12,18,57,955,-2149,-765,3361,-12,13,13,
1334,7,27,2023,12,18,57,965,-2159,-756,3352,-11,13,16,
1335,7,27,2023,12,18,57,975,-2151,-757,3352,-12,12,12,
1336,7,27,2023,12,18,57,985,-2159,-762,3356,-11,12,12,
1337,7,27,2023,12,18,57,995,-2172,-769,3347,-7,10,13,
1338,7,27,2023,12,18,58,5,-2161,-762,3349,-4,0,11,
1339,7,27,2023,12,18,58,15,-2137,-758,3348,-2,-7,12,
1340,7,27,2023,12,18,58,25,-2148,-762,3354,-4,-4,12,
1341,7,27,2023,12,18,58,35,-2148,-760,3356,-7,4,14,
1342,7,27,2023,12,18,58,45,-2151,-765,3360,-9,13,13,
1343,7,27,2023,12,18,58,55,-2164,-753,3360,-11,20,15,
1344,7,27,2023,12,18,58,65,-2166,-752,3351,-13,20,11,
1345,7,27,2023,12,18,58,75,-2169,-759,3343,-15,16,6,
1346,7,27,2023,12,18,58,85,-2166,-762,3340,-13,8,7,
1347,7,27,2023,12,18,58,95,-2168,-760,3339,-7,-5,9,
1348,7,27,2023,12,18,58,105,-2173,-762,3345,-2,-21,11,
1349,7,27,2023,12,18,58,115,-2141,-758,3356,1,-31,9,
1350,7,27,2023,12,18,58,125,-2156,-759,3358,2,-27,11,
1351,7,27,2023,12,18,58,135,-2163,-758,3355,2,-19,9,
1352,7,27,2023,12,18,58,145,-2155,-756,3352,3,-12,2,
1353,7,27,2023,12,18,58,155,-2162,-759,3349,0,-5,2,
1354,7,27,2023,12,18,58,165,-2164,-770,3347,-2,-11,5,
1355,7,27,2023,12,18,58,175,-2165,-760,3346,2,-17,8,
1356,7,27,2023,12,18,58,185,-2165,-767,3351,10,-26,8,
1357,7,27,2023,12,18,58,195,-2148,-766,3353,14,-30,13,
1358,7,27,2023,12,18,58,205,-2151,-749,3356,17,-28,16,
1359,7,27,2023,12,18,58,215,-2152,-746,3363,14,-19,11,
1360,7,27,2023,12,18,58,225,-2155,-749,3359,11,-18,7,
1361,7,27,2023,12,18,58,245,-2159,-760,3356,9,-13,1,
1362,7,27,2023,12,18,58,255,-2164,-768,3351,13,-21,5,
1363,7,27,2023,12,18,58,265,-2164,-756,3343,14,-31,7,
1364,7,27,2023,12,18,58,275,-2168,-749,3352,20,-37,7,
1365,7,27,2023,12,18,58,285,-2170,-756,3352,23,-48,4,
1366,7,27,2023,12,18,58,295,-2146,-752,3359,25,-54,4,
1367,7,27,2023,12,18,58,305,-2147,-751,3361,22,-52,4,
1368,7,27,2023,12,18,58,315,-2154,-746,3363,18,-52,3,
1369,7,27,2023,12,18,58,325,-2149,-751,3364,15,-46,0,
1370,7,27,2023,12,18,58,335,-2145,-754,3366,14,-43,2,
1371,7,27,2023,12,18,58,345,-2144,-754,3368,10,-38,-1,
1372,7,27,2023,12,18,58,355,-2132,-745,3363,8,-28,-2,
1373,7,27,2023,12,18,58,365,-2140,-758,3361,7,-18,2,
1374,7,27,2023,12,18,58,375,-2146,-754,3367,6,-13,3,
1375,7,27,2023,12,18,58,385,-2146,-742,3358,2,-15,2,
1376,7,27,2023,12,18,58,395,-2150,-746,3354,-3,-12,4,
1377,7,27,2023,12,18,58,405,-2150,-750,3361,-3,-7,1,
1378,7,27,2023,12,18,58,415,-2137,-744,3361,-4,-11,3,
1379,7,27,2023,12,18,58,425,-2137,-749,3360,-6,-13,0,
1380,7,27,2023,12,18,58,435,-2135,-757,3359,-6,-9,1,
1381,7,27,2023,12,18,58,445,-2129,-750,3359,-7,-5,3,
1382,7,27,2023,12,18,58,455,-2137,-746,3365,-9,-3,11,
1383,7,27,2023,12,18,58,465,-2140,-738,3363,-11,6,9,
1384,7,27,2023,12,18,58,475,-2149,-742,3359,-17,16,4,
1385,7,27,2023,12,18,58,485,-2141,-750,3360,-22,18,4,
1386,7,27,2023,12,18,58,495,-2145,-757,3357,-24,19,7,
1387,7,27,2023,12,18,58,505,-2137,-758,3354,-21,15,8,
1388,7,27,2023,12,18,58,515,-2125,-758,3361,-17,19,12,
1389,7,27,2023,12,18,58,525,-2149,-753,3367,-18,31,16,
1390,7,27,2023,12,18,58,535,-2154,-752,3358,-24,37,17,
1391,7,27,2023,12,18,58,545,-2151,-750,3351,-25,46,14,
1392,7,27,2023,12,18,58,555,-2149,-753,3365,-28,51,12,
1393,7,27,2023,12,18,58,565,-2155,-759,3354,-28,52,14,
1394,7,27,2023,12,18,58,575,-2150,-752,3351,-29,49,10,
1395,7,27,2023,12,18,58,585,-2126,-765,3365,-34,52,13,
1396,7,27,2023,12,18,58,595,-2144,-762,3362,-28,62,23,
1397,7,27,2023,12,18,58,605,-2164,-752,3353,-30,68,22,
1398,7,27,2023,12,18,58,615,-2179,-747,3348,-31,66,23,
1399,7,27,2023,12,18,58,625,-2174,-757,3350,-32,65,23,
1400,7,27,2023,12,18,58,635,-2190,-766,3342,-32,56,19,
1401,7,27,2023,12,18,58,645,-2185,-757,3341,-28,47,18,
1402,7,27,2023,12,18,58,655,-2169,-753,3338,-23,32,15,
1403,7,27,2023,12,18,58,665,-2174,-752,3333,-20,16,14,
1404,7,27,2023,12,18,58,675,-2173,-754,3340,-17,10,12,
1405,7,27,2023,12,18,58,685,-2167,-769,3347,-17,6,9,
1406,7,27,2023,12,18,58,695,-2174,-761,3344,-13,-1,10,
1407,7,27,2023,12,18,58,705,-2189,-758,3340,-6,-8,11,
1408,7,27,2023,12,18,58,715,-2180,-762,3341,-4,-14,8,
1409,7,27,2023,12,18,58,725,-2178,-755,3340,-2,-23,8,
1410,7,27,2023,12,18,58,735,-2181,-753,3341,1,-33,10,
1411,7,27,2023,12,18,58,745,-2168,-760,3339,2,-42,6,
1412,7,27,2023,12,18,58,755,-2166,-755,3348,5,-41,5,
1413,7,27,2023,12,18,58,765,-2152,-758,3347,5,-43,7,
1414,7,27,2023,12,18,58,775,-2157,-752,3353,3,-39,7,
1415,7,27,2023,12,18,58,785,-2157,-751,3354,1,-32,5,
1416,7,27,2023,12,18,58,795,-2151,-762,3352,-2,-24,7,
1417,7,27,2023,12,18,58,805,-2153,-756,3355,-5,-18,5,
1418,7,27,2023,12,18,58,815,-2162,-751,3358,-6,-12,2,
1419,7,27,2023,12,18,58,825,-2161,-756,3354,-10,-6,5,
1420,7,27,2023,12,18,58,835,-2159,-753,3346,-7,-2,5,
1421,7,27,2023,12,18,58,845,-2171,-753,3346,-6,-2,2,
1422,7,27,2023,12,18,58,855,-2177,-756,3349,-5,-8,1,
1423,7,27,2023,12,18,58,865,-2169,-758,3344,-1,-19,0,
1424,7,27,2023,12,18,58,875,-2168,-755,3348,1,-29,-1,
1425,7,27,2023,12,18,58,885,-2161,-758,3356,-2,-31,1,
1426,7,27,2023,12,18,58,895,-2160,-760,3345,-3,-33,1,
1427,7,27,2023,12,18,58,905,-2167,-762,3351,-6,-32,-1,
1428,7,27,2023,12,18,58,915,-2167,-753,3357,-8,-31,4,
1429,7,27,2023,12,18,58,925,-2174,-739,3347,-6,-34,1,
1430,7,27,2023,12,18,58,935,-2176,-744,3334,-4,-45,-5,
1431,7,27,2023,12,18,58,945,-2167,-748,3341,-3,-65,-5,
1432,7,27,2023,12,18,58,955,-2178,-746,3351,1,-85,-9,
1433,7,27,2023,12,18,58,965,-2170,-729,3348,0,-95,-17,
1434,7,27,2023,12,18,58,975,-2176,-737,3338,-5,-109,-28,
1435,7,27,2023,12,18,58,985,-2193,-709,3333,-4,-144,-36,
1436,7,27,2023,12,18,58,995,-2195,-643,3335,-11,-194,-51,
1437,7,27,2023,12,18,59,5,-2213,-609,3327,-29,-250,-89,
1438,7,27,2023,12,18,59,15,-2178,-655,3352,-62,-311,-135,
1439,7,27,2023,12,18,59,25,-2124,-671,3371,-110,-349,-174,
1440,7,27,2023,12,18,59,35,-2130,-741,3361,-149,-359,-203,
1441,7,27,2023,12,18,59,45,-2128,-805,3373,-143,-384,-200,
1442,7,27,2023,12,18,59,55,-2124,-801,3367,-122,-420,-192,
1443,7,27,2023,12,18,59,65,-2120,-724,3388,-124,-432,-195,
1444,7,27,2023,12,18,59,75,-2096,-680,3409,-155,-417,-220,
1445,7,27,2023,12,18,59,85,-2056,-726,3413,-218,-378,-257,
1446,7,27,2023,12,18,59,105,-2003,-822,3427,-345,-200,-304,
1447,7,27,2023,12,18,59,115,-1992,-906,3419,-388,-100,-303,
1448,7,27,2023,12,18,59,125,-1995,-962,3405,-380,-24,-275,
1449,7,27,2023,12,18,59,135,-1987,-950,3400,-345,31,-232,
1450,7,27,2023,12,18,59,145,-1981,-967,3397,-305,84,-187,
1451,7,27,2023,12,18,59,155,-1963,-966,3393,-264,147,-140,
1452,7,27,2023,12,18,59,165,-1938,-971,3406,-235,229,-83,
1453,7,27,2023,12,18,59,175,-1958,-949,3394,-218,330,-30,
1454,7,27,2023,12,18,59,185,-1949,-944,3405,-210,445,10,
1455,7,27,2023,12,18,59,195,-1871,-975,3412,-230,590,36,
1456,7,27,2023,12,18,59,205,-1694,-1041,3497,-153,765,146,
1457,7,27,2023,12,18,59,215,-1752,-1046,3567,-118,1038,289,
1458,7,27,2023,12,18,59,225,-1604,-872,3700,-146,1438,408,
1459,7,27,2023,12,18,59,235,-1412,-850,3886,-276,2070,557,
1460,7,27,2023,12,18,59,245,-982,-976,4153,-542,3045,784,
1461,7,27,2023,12,18,59,255,-1123,-816,4347,-779,4487,1106,
1462,7,27,2023,12,18,59,265,-1590,-1276,4580,-1218,6200,1389,
1463,7,27,2023,12,18,59,275,-1641,-1615,4888,-1049,7942,1652,
1464,7,27,2023,12,18,59,285,-2004,-1358,5043,-643,9508,1989,
1465,7,27,2023,12,18,59,295,-3580,-2800,6102,-344,10621,2569,
1466,7,27,2023,12,18,59,305,-4329,-4286,5429,824,10699,3493,
1467,7,27,2023,12,18,59,315,-8597,-1691,4917,1555,10696,4353,
1468,7,27,2023,12,18,59,325,-12365,-4360,4602,1160,9926,5193,
1469,7,27,2023,12,18,59,335,-15948,-4280,4780,2526,8215,5191,
1470,7,27,2023,12,18,59,345,-15323,-3383,8770,2314,5676,3612,
1471,7,27,2023,12,18,59,355,-7125,-1756,2571,972,1990,2219,
1472,7,27,2023,12,18,59,365,-4798,-1379,-110,239,2374,2637,
1473,7,27,2023,12,18,59,375,-7009,-2421,2413,345,3964,3401,
1474,7,27,2023,12,18,59,385,-7668,-3105,4882,681,3746,3287,
1475,7,27,2023,12,18,59,395,-5586,-3006,4642,1054,2176,2646,
1476,7,27,2023,12,18,59,405,-3399,-2631,3597,1606,914,2171,
1477,7,27,2023,12,18,59,415,-2230,-2084,3164,2173,229,1844,
1478,7,27,2023,12,18,59,425,-1274,-1637,2936,2405,-368,1370,
1479,7,27,2023,12,18,59,435,-501,-1604,2669,2386,-960,799,
1480,7,27,2023,12,18,59,445,370,-1647,2235,2412,-1522,258,
1481,7,27,2023,12,18,59,455,1296,-1393,1688,2468,-1925,-222,
1482,7,27,2023,12,18,59,465,2015,-1056,1204,2252,-2096,-684,
1483,7,27,2023,12,18,59,475,2381,-1110,1043,1709,-2121,-1151,
1484,7,27,2023,12,18,59,485,2325,-1453,1252,1170,-2172,-1641,
1485,7,27,2023,12,18,59,495,2455,-1481,1319,835,-2418,-2165,
1486,7,27,2023,12,18,59,505,2671,-1176,1197,562,-2728,-2711,
1487,7,27,2023,12,18,59,515,2751,-920,1067,238,-2996,-3252,
1488,7,27,2023,12,18,59,525,2600,-772,1081,-35,-3211,-3730,
1489,7,27,2023,12,18,59,535,2184,-565,1244,-188,-3427,-4124,
1490,7,27,2023,12,18,59,545,1646,-298,1339,-306,-3711,-4468,
1491,7,27,2023,12,18,59,555,1211,-195,1171,-400,-4049,-4748,
1492,7,27,2023,12,18,59,565,693,137,929,-388,-4308,-4988,
1493,7,27,2023,12,18,59,575,17,602,778,-424,-4472,-5243,
1494,7,27,2023,12,18,59,585,-722,967,589,-502,-4580,-5448,
1495,7,27,2023,12,18,59,595,-1684,1736,488,-531,-4551,-5515,
1496,7,27,2023,12,18,59,605,-3440,2509,327,-740,-4440,-5391,
1497,7,27,2023,12,18,59,615,-5524,2327,-282,-928,-4291,-4901,
1498,7,27,2023,12,18,59,625,-7056,2137,-897,-470,-3894,-4094,
1499,7,27,2023,12,18,59,635,-7838,2391,-1362,363,-3296,-3181,
1500,7,27,2023,12,18,59,645,-7633,2268,-1934,963,-2566,-2310,
1501,7,27,2023,12,18,59,655,-7335,2286,-2095,1291,-1585,-1689,
1502,7,27,2023,12,18,59,665,-7596,2168,-2007,1350,-569,-1258,
1503,7,27,2023,12,18,59,675,-7060,1606,-2326,1533,289,-677,
1504,7,27,2023,12,18,59,685,-5396,1651,-3063,1976,1271,4,
1505,7,27,2023,12,18,59,695,-3655,1316,-3433,2169,2568,579,
1506,7,27,2023,12,18,59,705,-16005,-7300,14934,3052,3226,917,
1507,7,27,2023,12,18,59,715,-1707,3190,603,3119,-6050,-1130,
1508,7,27,2023,12,18,59,725,-1009,-3736,4428,166,-7578,-332,
1509,7,27,2023,12,18,59,735,1125,-2019,6336,1153,-5359,221,
1510,7,27,2023,12,18,59,745,-196,1057,5048,1086,-4335,893,
1511,7,27,2023,12,18,59,755,-1450,-65,3868,817,-2448,1254,
1512,7,27,2023,12,18,59,765,-1466,998,4063,610,-320,863,
1513,7,27,2023,12,18,59,775,-2997,-673,3287,351,483,331,
1514,7,27,2023,12,18,59,785,-3724,-1578,2371,317,208,40,
1515,7,27,2023,12,18,59,795,-3404,-831,2491,351,-573,43,
1516,7,27,2023,12,18,59,805,-3069,-478,2795,383,-1399,120,
1517,7,27,2023,12,18,59,815,-2484,-414,3168,442,-1914,100,
1518,7,27,2023,12,18,59,825,-1957,-398,3611,376,-1870,-55,
1519,7,27,2023,12,18,59,835,-1818,-609,3733,289,-1394,-118,
1520,7,27,2023,12,18,59,845,-1859,-770,3668,198,-863,-65,
1521,7,27,2023,12,18,59,855,-1929,-696,3600,130,-443,54,
1522,7,27,2023,12,18,59,865,-2180,-474,3520,60,-126,122,
1523,7,27,2023,12,18,59,875,-2249,-447,3426,-48,81,80,
1524,7,27,2023,12,18,59,885,-2364,-501,3347,-130,150,10,
1525,7,27,2023,12,18,59,895,-2416,-513,3330,-186,126,-45,
1526,7,27,2023,12,18,59,905,-2338,-605,3330,-236,96,-84,
1527,7,27,2023,12,18,59,915,-2275,-698,3314,-250,77,-74,
1528,7,27,2023,12,18,59,925,-2244,-712,3339,-247,81,-42,
1529,7,27,2023,12,18,59,935,-2225,-632,3396,-250,126,-31,
1530,7,27,2023,12,18,59,945,-2176,-702,3402,-265,228,-45,
1531,7,27,2023,12,18,59,965,-2280,-744,3328,-256,446,-39,
1532,7,27,2023,12,18,59,975,-2276,-717,3279,-245,486,-24,
1533,7,27,2023,12,18,59,985,-2195,-768,3296,-236,527,-3,
1534,7,27,2023,12,18,59,995,-2133,-832,3369,-222,633,32,
1535,7,27,2023,12,19,0,5,-2137,-835,3344,-194,783,82,
1536,7,27,2023,12,19,0,15,-2228,-774,3280,-141,912,150,
1537,7,27,2023,12,19,0,25,-2284,-729,3231,-75,984,228,
1538,7,27,2023,12,19,0,35,-2261,-685,3148,-58,1010,276,
1539,7,27,2023,12,19,0,45,-2098,-681,3233,-99,1063,303,
1540,7,27,2023,12,19,0,55,-2121,-673,3286,-152,1186,312,
1541,7,27,2023,12,19,0,65,-2158,-642,3258,-185,1332,315,
1542,7,27,2023,12,19,0,75,-2365,-579,3176,-157,1423,325,
1543,7,27,2023,12,19,0,85,-2470,-677,2990,-93,1409,335,
1544,7,27,2023,12,19,0,95,-2298,-734,3009,-31,1351,374,
1545,7,27,2023,12,19,0,105,-2238,-685,3166,10,1401,455,
1546,7,27,2023,12,19,0,115,-2154,-671,3469,-42,1722,538,
1547,7,27,2023,12,19,0,125,-2142,-892,3548,-117,2245,631,
1548,7,27,2023,12,19,0,135,-2374,-716,3404,-65,2786,725,
1549,7,27,2023,12,19,0,145,-2667,-552,3174,-76,3246,750,
1550,7,27,2023,12,19,0,155,-2733,-482,3068,-136,3630,722,
1551,7,27,2023,12,19,0,165,-2658,-602,3092,-281,4022,727,
1552,7,27,2023,12,19,0,175,-2641,-658,3129,-421,4449,778,
1553,7,27,2023,12,19,0,185,-2678,-703,3018,-597,4971,873,
1554,7,27,2023,12,19,0,195,-2718,-485,3047,-791,5616,958,
1555,7,27,2023,12,19,0,205,-2892,-241,2983,-931,6241,932,
1556,7,27,2023,12,19,0,215,-3178,-234,3007,-991,6754,775,
1557,7,27,2023,12,19,0,225,-3157,-208,2884,-920,7190,581,
1558,7,27,2023,12,19,0,235,-3563,-193,3083,-752,7695,410,
1559,7,27,2023,12,19,0,245,-3665,-909,3648,-584,7987,218,
1560,7,27,2023,12,19,0,255,-3687,-1381,3273,-264,8025,269,
1561,7,27,2023,12,19,0,265,-4955,-1840,3397,72,7989,630,
1562,7,27,2023,12,19,0,275,-6137,-2000,3426,604,7583,1078,
1563,7,27,2023,12,19,0,285,-7573,-3636,3639,954,6966,1734,
1564,7,27,2023,12,19,0,295,-8183,-2764,2561,1459,6084,2416,
1565,7,27,2023,12,19,0,305,-8149,1898,-499,1489,6107,3676,
1566,7,27,2023,12,19,0,315,-11349,3034,-712,-432,6681,5089,
1567,7,27,2023,12,19,0,325,-17892,539,4223,-3223,6817,5929,
1568,7,27,2023,12,19,0,335,-15039,-2389,4225,-4957,4121,5602,
1569,7,27,2023,12,19,0,345,-11135,-3694,2283,-4457,2392,5692,
1570,7,27,2023,12,19,0,355,-9751,-3918,2512,-2773,2867,5588,
1571,7,27,2023,12,19,0,365,-8742,-4558,3528,-915,3732,4754,
1572,7,27,2023,12,19,0,375,-7831,-4927,4729,867,4197,3474,
1573,7,27,2023,12,19,0,385,-6847,-4571,5790,2490,4102,1968,
1574,7,27,2023,12,19,0,395,-5570,-3654,6280,3571,3409,388,
1575,7,27,2023,12,19,0,405,-4543,-2725,6383,3968,2365,-1045,
1576,7,27,2023,12,19,0,415,-3887,-1864,6459,3884,1056,-2118,
1577,7,27,2023,12,19,0,425,-2637,-1165,6078,3521,-588,-2745,
1578,7,27,2023,12,19,0,435,-1211,-665,5262,3064,-2154,-2938,
1579,7,27,2023,12,19,0,445,-363,-368,4518,2629,-3351,-2910,
1580,7,27,2023,12,19,0,455,149,-230,4077,2160,-4313,-2858,
1581,7,27,2023,12,19,0,465,278,-367,3868,1661,-5219,-2829,
1582,7,27,2023,12,19,0,475,612,-719,3351,1331,-6198,-2857,
1583,7,27,2023,12,19,0,485,1520,-857,2183,1398,-7020,-2888,
1584,7,27,2023,12,19,0,495,2438,-269,895,1652,-7285,-2845,
1585,7,27,2023,12,19,0,505,2816,509,319,1490,-7017,-2732,
1586,7,27,2023,12,19,0,515,2291,584,562,721,-6668,-2642,
1587,7,27,2023,12,19,0,525,1822,86,855,35,-6649,-2606,
1588,7,27,2023,12,19,0,535,1545,48,900,-106,-6827,-2491,
1589,7,27,2023,12,19,0,545,1305,267,750,-78,-7049,-2311,
1590,7,27,2023,12,19,0,555,819,242,540,-195,-7210,-2166,
1591,7,27,2023,12,19,0,565,171,-92,323,-309,-7299,-2123,
1592,7,27,2023,12,19,0,575,-582,-375,87,-274,-7359,-2216,
1593,7,27,2023,12,19,0,585,-1474,-21,-43,-181,-7386,-2516,
1594,7,27,2023,12,19,0,595,-2569,515,-344,-425,-7458,-2899,
1595,7,27,2023,12,19,0,605,-3568,410,-1233,-892,-7562,-3128,
1596,7,27,2023,12,19,0,615,-4200,376,-2404,-961,-7398,-3161,
1597,7,27,2023,12,19,0,625,-5064,1009,-3271,-810,-6756,-3098,
1598,7,27,2023,12,19,0,635,-6194,1416,-4145,-935,-5831,-2937,
1599,7,27,2023,12,19,0,645,-6644,1462,-5691,-1160,-4681,-2518,
1600,7,27,2023,12,19,0,655,-6372,1363,-7429,-1199,-3043,-1776,
1601,7,27,2023,12,19,0,665,-6540,580,-7586,-1014,-848,-985,
1602,7,27,2023,12,19,0,675,-6693,-186,-6852,-815,1128,-687,
1603,7,27,2023,12,19,0,685,-21874,-2001,-672,887,2494,45,
1604,7,27,2023,12,19,0,695,-18188,7168,2662,4385,-910,3755,
1605,7,27,2023,12,19,0,705,-1759,-425,2232,583,-5476,3586,
1606,7,27,2023,12,19,0,715,3556,-1397,7358,-728,-4769,1710,
1607,7,27,2023,12,19,0,725,-1685,2171,5240,588,-5425,864,
1608,7,27,2023,12,19,0,735,-4432,-1562,2188,789,-4937,155,
1609,7,27,2023,12,19,0,745,-1877,326,3794,688,-2987,-144,
1610,7,27,2023,12,19,0,755,-1419,-1001,3851,447,-2075,-144,
1611,7,27,2023,12,19,0,765,-2114,-2280,3029,514,-1814,22,
1612,7,27,2023,12,19,0,775,-2467,-471,3149,611,-1703,351,
1613,7,27,2023,12,19,0,785,-2727,-570,3066,513,-1735,443,
1614,7,27,2023,12,19,0,795,-2323,-411,3291,459,-1809,327,
1615,7,27,2023,12,19,0,805,-2323,-466,3425,417,-1781,167,
1616,7,27,2023,12,19,0,825,-1907,-783,3714,258,-1353,191,
1617,7,27,2023,12,19,0,835,-1908,-543,3818,196,-987,264,
1618,7,27,2023,12,19,0,845,-1885,-536,3889,99,-540,235,
1619,7,27,2023,12,19,0,855,-1849,-642,3847,-16,-76,199,
1620,7,27,2023,12,19,0,865,-1819,-644,3783,-115,361,211,
1621,7,27,2023,12,19,0,875,-1916,-593,3734,-183,779,227,
1622,7,27,2023,12,19,0,885,-2105,-521,3667,-242,1126,191,
1623,7,27,2023,12,19,0,895,-2127,-533,3556,-300,1391,119,
1624,7,27,2023,12,19,0,905,-2063,-661,3475,-361,1613,51,
1625,7,27,2023,12,19,0,915,-2131,-739,3443,-398,1826,53,
1626,7,27,2023,12,19,0,925,-2173,-792,3357,-402,2043,99,
1627,7,27,2023,12,19,0,935,-2161,-813,3305,-374,2222,157,
1628,7,27,2023,12,19,0,945,-2245,-765,3216,-302,2376,206,
1629,7,27,2023,12,19,0,955,-2395,-729,3132,-233,2471,236,
1630,7,27,2023,12,19,0,965,-2476,-747,3049,-205,2490,257,
1631,7,27,2023,12,19,0,975,-2499,-688,2997,-193,2456,274,
1632,7,27,2023,12,19,0,985,-2559,-665,2926,-190,2392,268,
1633,7,27,2023,12,19,0,995,-2589,-615,3006,-198,2330,243,
1634,7,27,2023,12,19,1,5,-2537,-635,2937,-215,2279,213,
1635,7,27,2023,12,19,1,15,-2596,-746,2878,-215,2190,228,
1636,7,27,2023,12,19,1,25,-2682,-751,2832,-228,2086,274,
1637,7,27,2023,12,19,1,35,-2600,-780,2821,-249,1992,322,
1638,7,27,2023,12,19,1,45,-2586,-716,2814,-241,1898,369,
1639,7,27,2023,12,19,1,55,-2646,-570,2956,-236,1872,364,
1640,7,27,2023,12,19,1,65,-2674,-706,2904,-212,1902,332,
1641,7,27,2023,12,19,1,75,-2682,-750,2862,-185,1971,360,
1642,7,27,2023,12,19,1,85,-2673,-647,2861,-175,2079,407,
1643,7,27,2023,12,19,1,95,-2799,-563,2929,-151,2192,406,
1644,7,27,2023,12,19,1,105,-2920,-609,2836,-110,2366,390,
1645,7,27,2023,12,19,1,115,-2832,-656,2830,-94,2562,375,
1646,7,27,2023,12,19,1,125,-2837,-741,2787,-149,2774,383,
1647,7,27,2023,12,19,1,135,-2896,-773,2882,-221,3050,410,
1648,7,27,2023,12,19,1,145,-2967,-676,2733,-284,3382,457,
1649,7,27,2023,12,19,1,155,-2983,-595,2702,-403,3766,477,
1650,7,27,2023,12,19,1,165,-3118,-566,2704,-537,4186,459,
1651,7,27,2023,12,19,1,175,-3057,-570,2763,-615,4633,431,
1652,7,27,2023,12,19,1,185,-3121,-504,2824,-631,5099,405,
1653,7,27,2023,12,19,1,195,-3479,-474,2702,-668,5563,352,
1654,7,27,2023,12,19,1,205,-3532,-338,2746,-781,6014,239,
1655,7,27,2023,12,19,1,215,-3464,-584,3214,-890,6537,46,
1656,7,27,2023,12,19,1,225,-3854,-1174,3257,-975,7015,-43,
1657,7,27,2023,12,19,1,235,-4917,-1565,3261,-1013,7232,67,
1658,7,27,2023,12,19,1,245,-5469,-1869,3620,-899,7068,308,
1659,7,27,2023,12,19,1,255,-5484,-2433,3169,-485,6819,866,
1660,7,27,2023,12,19,1,265,-7680,-1437,4604,-720,6587,1068,
1661,7,27,2023,12,19,1,275,-7630,-2129,4078,-2083,5233,1289,
1662,7,27,2023,12,19,1,285,-7587,-863,1366,-2962,4514,2162,
1663,7,27,2023,12,19,1,295,-9195,1738,-1056,-4347,4923,3367,
1664,7,27,2023,12,19,1,305,-17502,-1018,2741,-5668,5534,5166,
1665,7,27,2023,12,19,1,315,-16478,-4429,5833,-5953,2991,5292,
1666,7,27,2023,12,19,1,325,-10658,-4744,3282,-4040,-245,5307,
1667,7,27,2023,12,19,1,335,-8047,-3121,2318,-1662,-292,5638,
1668,7,27,2023,12,19,1,345,-7029,-2803,2864,-449,805,5270,
1669,7,27,2023,12,19,1,355,-6366,-3139,3602,79,1684,4240,
1670,7,27,2023,12,19,1,365,-6023,-3392,4506,591,2125,2978,
1671,7,27,2023,12,19,1,375,-5480,-3394,5173,1214,1956,1678,
1672,7,27,2023,12,19,1,385,-4645,-3008,5541,1930,1231,515,
1673,7,27,2023,12,19,1,395,-3531,-2197,5548,2534,207,-424,
1674,7,27,2023,12,19,1,405,-2470,-1288,5209,2687,-889,-1159,
1675,7,27,2023,12,19,1,415,-1426,-857,4635,2463,-1923,-1719,
1676,7,27,2023,12,19,1,425,-612,-685,4109,2228,-2749,-2037,
1677,7,27,2023,12,19,1,435,67,-428,3579,2081,-3409,-2158,
1678,7,27,2023,12,19,1,445,518,-193,3122,1859,-3947,-2213,
1679,7,27,2023,12,19,1,455,1022,-198,2597,1528,-4424,-2320,
1680,7,27,2023,12,19,1,465,1528,-350,2085,1323,-4735,-2429,
1681,7,27,2023,12,19,1,475,1671,-266,1954,1311,-4857,-2458,
1682,7,27,2023,12,19,1,485,1355,-19,2134,1191,-5041,-2467,
1683,7,27,2023,12,19,1,495,1326,49,2007,884,-5470,-2531,
1684,7,27,2023,12,19,1,505,1417,72,1758,605,-5918,-2517,
1685,7,27,2023,12,19,1,515,1112,270,1698,385,-6276,-2395,
1686,7,27,2023,12,19,1,525,636,278,1542,104,-6709,-2189,
1687,7,27,2023,12,19,1,535,377,-72,1101,-115,-7170,-1886,
1688,7,27,2023,12,19,1,545,-51,-486,699,-87,-7466,-1603,
1689,7,27,2023,12,19,1,555,-574,-703,368,66,-7624,-1556,
1690,7,27,2023,12,19,1,565,-987,-666,-55,117,-7712,-1819,
1691,7,27,2023,12,19,1,575,-1465,-204,-439,-53,-7665,-2292,
1692,7,27,2023,12,19,1,585,-2650,220,-621,-496,-7530,-2685,
1693,7,27,2023,12,19,1,595,-3942,321,-1140,-939,-7490,-2753,
1694,7,27,2023,12,19,1,605,-4984,662,-2093,-1039,-7376,-2456,
1695,7,27,2023,12,19,1,615,-6006,1169,-3137,-1002,-6972,-1948,
1696,7,27,2023,12,19,1,625,-6670,1398,-4482,-1028,-6270,-1396,
1697,7,27,2023,12,19,1,635,-6670,1430,-6154,-1076,-5119,-809,
1698,7,27,2023,12,19,1,645,-6266,1125,-7648,-1058,-3397,-326,
1699,7,27,2023,12,19,1,655,-5393,708,-8413,-847,-1171,-170,
1700,7,27,2023,12,19,1,665,-10631,-384,-4745,-483,1140,-406,
1701,7,27,2023,12,19,1,685,-6215,4079,-1515,792,-5018,2418,
1702,7,27,2023,12,19,1,695,2429,-3463,5907,-1463,-4982,498,
1703,7,27,2023,12,19,1,705,1828,3143,7129,-188,-5396,-1048,
1704,7,27,2023,12,19,1,715,-4482,-2760,2228,68,-6154,-1169,
1705,7,27,2023,12,19,1,725,-2721,-1269,3555,334,-4290,-1156,
1706,7,27,2023,12,19,1,735,-253,-1053,4589,146,-2849,-550,
1707,7,27,2023,12,19,1,745,-1676,-2831,3321,306,-2395,38,
1708,7,27,2023,12,19,1,755,-2131,-430,3512,540,-2057,474,
1709,7,27,2023,12,19,1,765,-2657,-225,3426,416,-1940,458,
1710,7,27,2023,12,19,1,775,-2078,-232,3393,286,-1916,177,
1711,7,27,2023,12,19,1,785,-1646,-498,3562,225,-1802,-140,
1712,7,27,2023,12,19,1,795,-2238,-918,3676,168,-1629,-207,
1713,7,27,2023,12,19,1,805,-1678,-1066,3880,89,-1382,-88,
1714,7,27,2023,12,19,1,815,-1209,-1020,3924,62,-1023,57,
1715,7,27,2023,12,19,1,825,-1674,-830,3896,67,-603,168,
1716,7,27,2023,12,19,1,835,-2007,-806,3778,39,-298,189,
1717,7,27,2023,12,19,1,845,-1771,-684,3628,3,-130,150,
1718,7,27,2023,12,19,1,855,-1784,-600,3591,-65,2,67,
1719,7,27,2023,12,19,1,865,-2005,-735,3629,-120,89,-22,
1720,7,27,2023,12,19,1,875,-2066,-833,3571,-152,103,-35,
1721,7,27,2023,12,19,1,885,-1739,-795,3521,-192,106,-11,
1722,7,27,2023,12,19,1,895,-1812,-794,3609,-223,159,-8,
1723,7,27,2023,12,19,1,905,-2079,-726,3654,-239,221,-35,
1724,7,27,2023,12,19,1,915,-1784,-719,3622,-285,296,-77,
1725,7,27,2023,12,19,1,925,-1554,-831,3639,-336,458,-105,
1726,7,27,2023,12,19,1,935,-1903,-900,3688,-352,655,-81,
1727,7,27,2023,12,19,1,945,-1916,-936,3653,-375,817,-20,
1728,7,27,2023,12,19,1,955,-1451,-947,3505,-381,984,46,
1729,7,27,2023,12,19,1,965,-1652,-940,3557,-347,1183,89,
1730,7,27,2023,12,19,1,975,-2180,-896,3542,-302,1311,118,
1731,7,27,2023,12,19,1,985,-1906,-934,3356,-281,1349,128,
1732,7,27,2023,12,19,1,995,-1704,-919,3303,-227,1373,151,
1733,7,27,2023,12,19,2,5,-2128,-854,3271,-170,1334,175,
1734,7,27,2023,12,19,2,15,-2435,-846,3232,-169,1204,168,
1735,7,27,2023,12,19,2,25,-2019,-876,3250,-178,1066,150,
1736,7,27,2023,12,19,2,35,-1859,-929,3246,-150,955,159,
1737,7,27,2023,12,19,2,45,-2344,-861,3226,-96,800,172,
1738,7,27,2023,12,19,2,55,-2460,-764,3115,-65,562,164,
1739,7,27,2023,12,19,2,65,-2196,-704,3058,-67,296,109,
1740,7,27,2023,12,19,2,75,-2176,-828,3113,-40,47,21,
1741,7,27,2023,12,19,2,85,-2371,-927,3121,-1,-210,-37,
1742,7,27,2023,12,19,2,95,-2283,-913,3108,8,-460,-43,
1743,7,27,2023,12,19,2,105,-1964,-839,3157,45,-656,-7,
1744,7,27,2023,12,19,2,115,-2124,-805,3213,102,-813,25,
1745,7,27,2023,12,19,2,125,-2052,-773,3353,107,-902,8,
1746,7,27,2023,12,19,2,135,-1738,-882,3425,103,-861,-11,
1747,7,27,2023,12,19,2,145,-1713,-954,3509,128,-691,18,
1748,7,27,2023,12,19,2,155,-1652,-1021,3605,140,-402,98,
1749,7,27,2023,12,19,2,165,-1667,-976,3770,155,-23,238,
1750,7,27,2023,12,19,2,175,-1520,-769,3968,97,494,364,
1751,7,27,2023,12,19,2,185,-1556,-715,4115,-10,1163,443,
1752,7,27,2023,12,19,2,195,-1754,-720,4093,-110,1923,497,
1753,7,27,2023,12,19,2,205,-1404,-835,4092,-216,2795,561,
1754,7,27,2023,12,19,2,215,-1533,-861,4053,-281,3839,712,
1755,7,27,2023,12,19,2,225,-1601,-819,3798,-348,5032,918,
1756,7,27,2023,12,19,2,235,-1782,-641,3732,-439,6437,1106,
1757,7,27,2023,12,19,2,245,-1808,-382,3734,-686,7907,1235,
1758,7,27,2023,12,19,2,255,-1592,-367,3736,-1006,9364,1205,
1759,7,27,2023,12,19,2,265,-2057,-593,3980,-1145,10863,1076,
1760,7,27,2023,12,19,2,275,-2638,-1043,3993,-1154,11982,1094,
1761,7,27,2023,12,19,2,285,-3185,-1250,3862,-1299,12626,1292,
1762,7,27,2023,12,19,2,295,-3881,-2612,4731,-1492,13021,1617,
1763,7,27,2023,12,19,2,305,-4925,-2421,5308,-1234,12920,2026,
1764,7,27,2023,12,19,2,315,-6864,-1772,4371,-1311,12139,2355,
1765,7,27,2023,12,19,2,325,-8909,-2356,4563,-1112,11114,2839,
1766,7,27,2023,12,19,2,335,-11259,-2098,6310,-2167,8980,2302,
1767,7,27,2023,12,19,2,345,-8596,-662,1931,-3307,6550,2270,
1768,7,27,2023,12,19,2,355,-11734,-155,-967,-3313,6189,3956,
1769,7,27,2023,12,19,2,365,-18076,-3625,7474,-3618,6161,5143,
1770,7,27,2023,12,19,2,375,-12507,-3871,5701,-2782,1687,4598,
1771,7,27,2023,12,19,2,385,-7854,-2725,2779,-1849,-452,4061,
1772,7,27,2023,12,19,2,395,-5983,-2662,1593,-991,-58,3563,
1773,7,27,2023,12,19,2,405,-5463,-3218,1824,125,1010,3064,
1774,7,27,2023,12,19,2,415,-5590,-3246,2908,1421,1749,2452,
1775,7,27,2023,12,19,2,425,-5548,-2757,4056,2385,1727,1560,
1776,7,27,2023,12,19,2,435,-4744,-2197,4581,2792,1020,547,
1777,7,27,2023,12,19,2,445,-3642,-1719,4502,2839,78,-256,
1778,7,27,2023,12,19,2,455,-2458,-1451,4149,2759,-840,-784,
1779,7,27,2023,12,19,2,465,-1340,-1334,3690,2758,-1632,-1076,
1780,7,27,2023,12,19,2,475,-445,-1077,3198,2868,-2253,-1225,
1781,7,27,2023,12,19,2,485,200,-699,2743,2877,-2757,-1323,
1782,7,27,2023,12,19,2,495,715,-542,2441,2657,-3182,-1444,
1783,7,27,2023,12,19,2,505,958,-630,2286,2303,-3533,-1572,
1784,7,27,2023,12,19,2,515,1164,-805,2094,2026,-3907,-1739,
1785,7,27,2023,12,19,2,525,1398,-664,1889,1862,-4238,-1944,
1786,7,27,2023,12,19,2,545,1438,5,1544,1181,-4757,-2346,
1787,7,27,2023,12,19,2,555,1318,200,1479,731,-4987,-2351,
1788,7,27,2023,12,19,2,565,818,237,1715,372,-5246,-2153,
1789,7,27,2023,12,19,2,575,224,136,1872,145,-5706,-1840,
1790,7,27,2023,12,19,2,585,-98,0,1650,56,-6316,-1529,
1791,7,27,2023,12,19,2,595,-193,-108,1010,77,-6860,-1324,
1792,7,27,2023,12,19,2,605,-587,-192,400,104,-7151,-1261,
1793,7,27,2023,12,19,2,615,-1248,-367,110,101,-7247,-1355,
1794,7,27,2023,12,19,2,625,-1941,-301,-181,109,-7289,-1604,
1795,7,27,2023,12,19,2,635,-2541,-249,-766,106,-7277,-1882,
1796,7,27,2023,12,19,2,645,-3168,-347,-1425,138,-7097,-2032,
1797,7,27,2023,12,19,2,655,-3756,-267,-1984,250,-6733,-2115,
1798,7,27,2023,12,19,2,665,-4515,-94,-2402,238,-6259,-2168,
1799,7,27,2023,12,19,2,675,-5202,30,-3022,62,-5803,-2169,
1800,7,27,2023,12,19,2,685,-5743,316,-3771,-190,-5238,-2037,
1801,7,27,2023,12,19,2,695,-6079,434,-4626,-508,-4511,-1700,
1802,7,27,2023,12,19,2,705,-5983,591,-5689,-771,-3543,-1225,
1803,7,27,2023,12,19,2,715,-5675,746,-6550,-1059,-2161,-723,
1804,7,27,2023,12,19,2,725,-4943,460,-7267,-1273,-433,-350,
1805,7,27,2023,12,19,2,735,-6479,-1160,-5200,-1385,1550,-127,
1806,7,27,2023,12,19,2,745,-21376,2593,12992,1069,573,1560,
1807,7,27,2023,12,19,2,755,-3482,8143,-2290,1429,-7533,3225,
1808,7,27,2023,12,19,2,765,1520,-4958,4769,-1735,-6748,2589,
1809,7,27,2023,12,19,2,775,3715,259,7115,-492,-5351,1003,
1810,7,27,2023,12,19,2,785,-3227,20,3830,1093,-5049,523,
1811,7,27,2023,12,19,2,795,-3410,-586,3411,824,-3271,88,
1812,7,27,2023,12,19,2,805,-1087,753,4413,290,-1702,-154,
1813,7,27,2023,12,19,2,815,-1923,-2027,3499,71,-1202,-222,
1814,7,27,2023,12,19,2,825,-2429,-1340,3040,268,-1149,-18,
1815,7,27,2023,12,19,2,835,-2633,-766,2986,269,-1323,262,
1816,7,27,2023,12,19,2,845,-2495,-724,3153,240,-1660,382,
1817,7,27,2023,12,19,2,855,-2188,-317,3402,279,-1917,279,
1818,7,27,2023,12,19,2,865,-2166,-473,3519,237,-1920,108,
1819,7,27,2023,12,19,2,875,-2030,-672,3764,175,-1795,0,
1820,7,27,2023,12,19,2,885,-1856,-652,3875,154,-1593,-37,
1821,7,27,2023,12,19,2,895,-1733,-568,3849,136,-1277,-68,
1822,7,27,2023,12,19,2,905,-1653,-792,3877,103,-916,-81,
1823,7,27,2023,12,19,2,915,-1747,-846,3913,100,-566,-11,
1824,7,27,2023,12,19,2,925,-1730,-744,3875,93,-245,80,
1825,7,27,2023,12,19,2,935,-1549,-613,3842,69,77,135,
1826,7,27,2023,12,19,2,945,-1733,-515,3828,24,394,130,
1827,7,27,2023,12,19,2,955,-1900,-539,3808,-49,673,91,
1828,7,27,2023,12,19,2,965,-1672,-565,3851,-140,967,60,
1829,7,27,2023,12,19,2,975,-1533,-628,3841,-202,1323,61,
1830,7,27,2023,12,19,2,985,-1698,-676,3852,-253,1728,96,
1831,7,27,2023,12,19,2,995,-1889,-660,3791,-291,2102,145,
1832,7,27,2023,12,19,3,5,-1806,-589,3633,-326,2420,190,
1833,7,27,2023,12,19,3,15,-1830,-551,3456,-394,2699,207,
1834,7,27,2023,12,19,3,25,-2106,-612,3383,-435,2901,219,
1835,7,27,2023,12,19,3,35,-2159,-637,3206,-458,3005,226,
1836,7,27,2023,12,19,3,45,-2034,-781,3134,-433,3091,261,
1837,7,27,2023,12,19,3,55,-2276,-759,3054,-361,3111,329,
1838,7,27,2023,12,19,3,65,-2612,-730,2884,-309,3009,384,
1839,7,27,2023,12,19,3,75,-2568,-649,2836,-273,2781,412,
1840,7,27,2023,12,19,3,85,-2349,-553,2856,-279,2576,406,
1841,7,27,2023,12,19,3,95,-2343,-707,3036,-310,2436,377,
1842,7,27,2023,12,19,3,105,-2654,-624,3024,-294,2265,366,
1843,7,27,2023,12,19,3,115,-2621,-654,2951,-271,2084,334,
1844,7,27,2023,12,19,3,125,-2436,-699,2838,-224,2006,310,
1845,7,27,2023,12,19,3,135,-2497,-855,2929,-158,2027,355,
1846,7,27,2023,12,19,3,145,-2814,-841,2972,-53,2030,481,
1847,7,27,2023,12,19,3,155,-2573,-653,3012,-18,2094,564,
1848,7,27,2023,12,19,3,165,-2329,-606,3168,-65,2350,577,
1849,7,27,2023,12,19,3,175,-2649,-489,3102,-124,2698,597,
1850,7,27,2023,12,19,3,185,-2772,-452,3054,-204,3009,554,
1851,7,27,2023,12,19,3,195,-2632,-473,3066,-294,3350,471,
1852,7,27,2023,12,19,3,205,-2641,-456,3071,-414,3812,419,
1853,7,27,2023,12,19,3,215,-2963,-439,3026,-554,4321,387,
1854,7,27,2023,12,19,3,225,-2960,-452,2904,-684,4817,331,
1855,7,27,2023,12,19,3,235,-2701,-527,2963,-799,5394,269,
1856,7,27,2023,12,19,3,245,-3127,-593,2893,-921,6022,248,
1857,7,27,2023,12,19,3,255,-3386,-367,2733,-1043,6559,227,
1858,7,27,2023,12,19,3,265,-3121,-268,3080,-1288,7168,15,
1859,7,27,2023,12,19,3,275,-3510,-1060,3502,-1463,7806,-190,
1860,7,27,2023,12,19,3,285,-4075,-1460,3298,-1328,8147,-46,
1861,7,27,2023,12,19,3,295,-4907,-1741,3409,-1266,8332,273,
1862,7,27,2023,12,19,3,305,-4984,-1868,3808,-1243,8212,532,
1863,7,27,2023,12,19,3,315,-5991,-2924,3370,-951,8058,1160,
1864,7,27,2023,12,19,3,325,-7777,-1547,4227,-971,7517,1503,
1865,7,27,2023,12,19,3,335,-7856,-2833,4331,-2306,6217,1632,
1866,7,27,2023,12,19,3,345,-7485,-980,1717,-2984,5279,2147,
1867,7,27,2023,12,19,3,355,-8291,2626,-826,-4430,5626,3095,
1868,7,27,2023,12,19,3,365,-15133,639,151,-6656,6182,4452,
1869,7,27,2023,12,19,3,375,-17369,-4954,5996,-7562,4614,4905,
1870,7,27,2023,12,19,3,385,-11494,-6199,3534,-4790,337,5090,
1871,7,27,2023,12,19,3,405,-7182,-2822,2367,1325,-30,5542,
1872,7,27,2023,12,19,3,415,-6525,-2816,2944,1819,617,4384,
1873,7,27,2023,12,19,3,425,-6085,-3553,3745,1923,856,2733,
1874,7,27,2023,12,19,3,435,-5114,-3886,4109,2607,602,1192,
1875,7,27,2023,12,19,3,445,-3852,-3223,4046,3845,174,94,
1876,7,27,2023,12,19,3,455,-2698,-2007,3868,4779,-267,-747,
1877,7,27,2023,12,19,3,465,-2028,-1020,4003,4916,-688,-1500,
1878,7,27,2023,12,19,3,475,-1756,-714,4397,4424,-1275,-2190,
1879,7,27,2023,12,19,3,485,-1415,-905,4469,3886,-2204,-2694,
1880,7,27,2023,12,19,3,495,-723,-845,4085,3669,-3254,-2918,
1881,7,27,2023,12,19,3,505,109,-440,3488,3548,-4155,-2919,
1882,7,27,2023,12,19,3,515,794,-40,2868,3160,-4800,-2835,
1883,7,27,2023,12,19,3,525,1259,-17,2432,2520,-5195,-2716,
1884,7,27,2023,12,19,3,535,1169,-119,2408,1863,-5444,-2560,
1885,7,27,2023,12,19,3,545,1069,-210,2241,1314,-5811,-2443,
1886,7,27,2023,12,19,3,555,1182,-232,1828,962,-6220,-2291,
1887,7,27,2023,12,19,3,565,1325,-16,1406,724,-6483,-2061,
1888,7,27,2023,12,19,3,575,1333,335,1098,378,-6589,-1812,
1889,7,27,2023,12,19,3,585,999,458,1080,-133,-6596,-1528,
1890,7,27,2023,12,19,3,595,281,158,1102,-646,-6660,-1149,
1891,7,27,2023,12,19,3,605,-359,-379,932,-880,-6792,-707,
1892,7,27,2023,12,19,3,615,-1048,-852,768,-818,-6867,-349,
1893,7,27,2023,12,19,3,625,-1961,-1182,748,-741,-6895,-356,
1894,7,27,2023,12,19,3,635,-3039,-1433,727,-813,-7035,-849,
1895,7,27,2023,12,19,3,645,-3637,-1374,-7,-844,-7298,-1709,
1896,7,27,2023,12,19,3,655,-3980,-759,-1284,-754,-7279,-2575,
1897,7,27,2023,12,19,3,665,-4424,114,-2470,-752,-6769,-3198,
1898,7,27,2023,12,19,3,675,-4971,795,-3374,-847,-5885,-3484,
1899,7,27,2023,12,19,3,685,-5685,1237,-3938,-863,-4810,-3415,
1900,7,27,2023,12,19,3,695,-6346,1827,-4539,-707,-3719,-3028,
1901,7,27,2023,12,19,3,705,-6654,2478,-5299,-485,-2633,-2315,
1902,7,27,2023,12,19,3,715,-6782,2880,-5908,-370,-1473,-1311,
1903,7,27,2023,12,19,3,725,-6336,2789,-6820,-394,-242,-248,
1904,7,27,2023,12,19,3,735,-13700,827,-5183,-47,1230,776,
1905,7,27,2023,12,19,3,745,-24894,-118,1699,2562,690,3141,
1906,7,27,2023,12,19,3,755,-4069,2574,-806,197,-3477,2021,
1907,7,27,2023,12,19,3,765,1090,-1962,5404,-1343,-4027,1312,
1908,7,27,2023,12,19,3,775,905,478,6019,-401,-4881,662,
1909,7,27,2023,12,19,3,785,-3563,165,3149,408,-5838,-60,
1910,7,27,2023,12,19,3,795,-2864,-1608,2724,423,-5038,-459,
1911,7,27,2023,12,19,3,805,-1621,-124,3979,405,-3724,-222,
1912,7,27,2023,12,19,3,815,-1627,-576,3958,235,-2938,-144,
1913,7,27,2023,12,19,3,825,-2127,-1305,3396,243,-2410,-147,
1914,7,27,2023,12,19,3,835,-2184,-456,3454,281,-2042,-73,
1915,7,27,2023,12,19,3,845,-2577,-1183,3141,249,-1966,-13,
1916,7,27,2023,12,19,3,855,-2300,-1026,3141,284,-2062,123,
1917,7,27,2023,12,19,3,865,-2256,-728,3215,311,-2244,193,
1918,7,27,2023,12,19,3,875,-2311,-493,3384,285,-2342,140,
1919,7,27,2023,12,19,3,885,-1892,-560,3587,223,-2309,0,
1920,7,27,2023,12,19,3,895,-1862,-660,3709,205,-2195,-107,
1921,7,27,2023,12,19,3,905,-1885,-759,3802,168,-1969,-168,
1922,7,27,2023,12,19,3,915,-1741,-981,3794,133,-1687,-161,
1923,7,27,2023,12,19,3,925,-1694,-885,3833,133,-1411,-99,
1924,7,27,2023,12,19,3,935,-1660,-784,3916,115,-1100,-56,
1925,7,27,2023,12,19,3,945,-1596,-738,3910,84,-757,-54,
1926,7,27,2023,12,19,3,955,-1577,-722,3876,38,-424,-66,
1927,7,27,2023,12,19,3,965,-1610,-724,3871,-32,-106,-71,
1928,7,27,2023,12,19,3,975,-1683,-730,3842,-91,185,-62,
1929,7,27,2023,12,19,3,985,-1576,-755,3822,-151,468,-24,
1930,7,27,2023,12,19,3,995,-1510,-733,3863,-227,790,16,
1931,7,27,2023,12,19,4,5,-1517,-753,3901,-299,1165,49,
1932,7,27,2023,12,19,4,15,-1520,-845,3909,-352,1571,90,
1933,7,27,2023,12,19,4,25,-1587,-780,3770,-375,1973,149,
1934,7,27,2023,12,19,4,35,-1744,-785,3609,-399,2310,191,
1935,7,27,2023,12,19,4,45,-1984,-813,3506,-409,2516,217,
1936,7,27,2023,12,19,4,55,-2019,-782,3351,-400,2610,239,
1937,7,27,2023,12,19,4,65,-1987,-856,3174,-408,2643,259,
1938,7,27,2023,12,19,4,75,-2177,-898,3192,-383,2632,312,
1939,7,27,2023,12,19,4,85,-2294,-900,3183,-334,2552,360,
1940,7,27,2023,12,19,4,95,-2298,-848,3025,-264,2397,377,
1941,7,27,2023,12,19,4,105,-2284,-856,2990,-190,2182,387,
1942,7,27,2023,12,19,4,115,-2534,-861,2980,-122,1907,379,
1943,7,27,2023,12,19,4,125,-2523,-800,2892,-83,1561,353,
1944,7,27,2023,12,19,4,135,-2331,-682,2930,-99,1263,299,
1945,7,27,2023,12,19,4,145,-2421,-652,2960,-131,1038,228,
1946,7,27,2023,12,19,4,155,-2515,-700,3049,-115,783,171,
1947,7,27,2023,12,19,4,165,-2434,-753,3046,-73,589,126,
1948,7,27,2023,12,19,4,175,-2196,-880,3001,-3,463,128,
1949,7,27,2023,12,19,4,185,-2423,-914,3063,14,404,185,
1950,7,27,2023,12,19,4,195,-2531,-723,3055,9,354,214,
1951,7,27,2023,12,19,4,205,-2177,-637,3156,-58,360,169,
1952,7,27,2023,12,19,4,215,-2138,-653,3305,-118,516,117,
1953,7,27,2023,12,19,4,225,-2332,-668,3371,-144,754,102,
1954,7,27,2023,12,19,4,235,-2276,-675,3414,-185,1106,132,
1955,7,27,2023,12,19,4,245,-2143,-841,3461,-215,1614,218,
1956,7,27,2023,12,19,4,265,-2129,-928,3597,-230,3071,619,
1957,7,27,2023,12,19,4,275,-2076,-617,3660,-303,4017,736,
1958,7,27,2023,12,19,4,285,-2094,-435,3620,-493,5084,738,
1959,7,27,2023,12,19,4,295,-2291,-425,3464,-722,6216,684,
1960,7,27,2023,12,19,4,305,-2432,-415,3479,-947,7383,599,
1961,7,27,2023,12,19,4,315,-2499,-543,3492,-1196,8510,521,
1962,7,27,2023,12,19,4,325,-2981,-517,3482,-1354,9500,462,
1963,7,27,2023,12,19,4,335,-3056,-448,3571,-1451,10209,302,
1964,7,27,2023,12,19,4,345,-3660,-1308,3535,-1580,10823,216,
1965,7,27,2023,12,19,4,355,-4641,-2504,3964,-1731,11046,512,
1966,7,27,2023,12,19,4,365,-5191,-3257,4354,-1480,10751,1075,
1967,7,27,2023,12,19,4,375,-5386,-2675,3446,-941,10219,1722,
1968,7,27,2023,12,19,4,385,-8071,-3452,3874,-273,9731,2473,
1969,7,27,2023,12,19,4,395,-8902,-1550,4440,-883,8295,2495,
1970,7,27,2023,12,19,4,405,-9725,-1343,2801,-2273,6369,2742,
1971,7,27,2023,12,19,4,415,-8324,1927,-1658,-3991,5524,3305,
1972,7,27,2023,12,19,4,425,-15712,232,-600,-6022,6444,4794,
1973,7,27,2023,12,19,4,435,-17343,-3659,5447,-7054,5084,5145,
1974,7,27,2023,12,19,4,445,-12125,-4729,3594,-5817,938,4841,
1975,7,27,2023,12,19,4,455,-8813,-3715,2286,-3471,-166,4707,
1976,7,27,2023,12,19,4,465,-7440,-3607,2401,-1464,336,4306,
1977,7,27,2023,12,19,4,475,-6187,-4054,2606,172,865,3507,
1978,7,27,2023,12,19,4,485,-5296,-3748,3137,1921,1387,2549,
1979,7,27,2023,12,19,4,495,-5036,-3197,4279,3251,1548,1508,
1980,7,27,2023,12,19,4,505,-4515,-2482,5066,3876,990,349,
1981,7,27,2023,12,19,4,515,-3316,-1700,5027,3998,-41,-693,
1982,7,27,2023,12,19,4,525,-1920,-1168,4502,3785,-1083,-1348,
1983,7,27,2023,12,19,4,535,-924,-1031,4057,3541,-1840,-1621,
1984,7,27,2023,12,19,4,545,-664,-889,3957,3375,-2447,-1706,
1985,7,27,2023,12,19,4,555,-440,-763,3844,3125,-3237,-1810,
1986,7,27,2023,12,19,4,565,-14,-641,3496,2732,-4183,-1962,
1987,7,27,2023,12,19,4,575,701,-698,2862,2349,-5047,-2105,
1988,7,27,2023,12,19,4,585,1425,-624,2068,2125,-5587,-2170,
1989,7,27,2023,12,19,4,595,1706,-243,1703,1948,-5751,-2141,
1990,7,27,2023,12,19,4,605,1302,177,1803,1476,-5851,-2103,
1991,7,27,2023,12,19,4,615,1155,136,1707,778,-6191,-2077,
1992,7,27,2023,12,19,4,625,1189,-132,1401,274,-6557,-1914,
1993,7,27,2023,12,19,4,635,1205,-194,1085,149,-6780,-1631,
1994,7,27,2023,12,19,4,645,998,13,1040,113,-6852,-1335,
1995,7,27,2023,12,19,4,655,509,-78,1246,-119,-6951,-1128,
1996,7,27,2023,12,19,4,665,40,-318,1394,-394,-7215,-1052,
1997,7,27,2023,12,19,4,675,-256,-406,1166,-563,-7572,-1034,
1998,7,27,2023,12,19,4,685,-560,-400,777,-701,-7833,-1054,
1999,7,27,2023,12,19,4,695,-1045,-559,463,-871,-7910,-1189,
2000,7,27,2023,12,19,4,705,-1701,-829,240,-986,-7895,-1477,
2001,7,27,2023,12,19,4,715,-2070,-464,-77,-1020,-7801,-1988,
2002,7,27,2023,12,19,4,725,-2568,398,-414,-1290,-7514,-2565,
2003,7,27,2023,12,19,4,735,-3688,640,-820,-1839,-7103,-2907,
2004,7,27,2023,12,19,4,745,-5040,626,-1360,-2059,-6570,-2889,
2005,7,27,2023,12,19,4,755,-6267,872,-1918,-1875,-5906,-2608,
2006,7,27,2023,12,19,4,765,-7061,1028,-2600,-1550,-5204,-2176,
2007,7,27,2023,12,19,4,775,-7410,1452,-3527,-1234,-4364,-1652,
2008,7,27,2023,12,19,4,785,-7438,1772,-4840,-1195,-3237,-1075,
2009,7,27,2023,12,19,4,795,-7435,1345,-5586,-1328,-1687,-436,
2010,7,27,2023,12,19,4,805,-7671,705,-5283,-1250,-37,17,
2011,7,27,2023,12,19,4,815,-6728,467,-5462,-1034,1291,-36,
2012,7,27,2023,12,19,4,825,-4808,551,-6059,-938,2670,-488,
2013,7,27,2023,12,19,4,835,-19355,-7898,4335,1869,4182,367,
2014,7,27,2023,12,19,4,845,-18903,3589,11597,8612,-369,3624,
2015,7,27,2023,12,19,4,855,2877,5153,5363,1108,-6501,2553,
2016,7,27,2023,12,19,4,865,3160,-1069,6369,-118,-4555,1984,
2017,7,27,2023,12,19,4,875,-2329,3118,5442,659,-1491,754,
2018,7,27,2023,12,19,4,885,-3212,-822,2884,25,386,-92,
2019,7,27,2023,12,19,4,895,-2372,-1475,2904,-184,1201,-414,
2020,7,27,2023,12,19,4,905,-3862,-1697,1947,-7,602,-107,
2021,7,27,2023,12,19,4,915,-3365,-1762,2131,155,-401,173,
2022,7,27,2023,12,19,4,925,-2539,-650,3090,304,-1334,408,
2023,7,27,2023,12,19,4,935,-2417,172,3544,234,-1631,347,
2024,7,27,2023,12,19,4,945,-2155,-148,3627,20,-1252,-17,
2025,7,27,2023,12,19,4,955,-2061,-1079,3439,-118,-705,-244,
2026,7,27,2023,12,19,4,965,-2368,-1321,3174,-81,-401,-148,
2027,7,27,2023,12,19,4,975,-2346,-840,3244,1,-333,47,
2028,7,27,2023,12,19,4,985,-2309,-587,3399,25,-260,91,
2029,7,27,2023,12,19,4,995,-2343,-725,3362,-25,-111,19,
2030,7,27,2023,12,19,5,5,-2374,-865,3257,-54,-8,-7,
2031,7,27,2023,12,19,5,15,-2431,-860,3205,-45,7,26,
2032,7,27,2023,12,19,5,25,-2436,-790,3236,-27,-40,42,
2033,7,27,2023,12,19,5,35,-2342,-808,3285,-20,-90,19,
2034,7,27,2023,12,19,5,45,-2223,-924,3301,-1,-62,6,
2035,7,27,2023,12,19,5,55,-2262,-903,3292,29,25,50,
2036,7,27,2023,12,19,5,65,-2358,-773,3259,46,79,78,
2037,7,27,2023,12,19,5,75,-2387,-791,3209,52,76,70,
2038,7,27,2023,12,19,5,85,-2338,-793,3231,62,44,64,
2039,7,27,2023,12,19,5,95,-2293,-761,3262,60,38,59,
2040,7,27,2023,12,19,5,105,-2241,-682,3325,23,101,40,
2041,7,27,2023,12,19,5,125,-2318,-804,3225,-37,313,19,
2042,7,27,2023,12,19,5,135,-2372,-774,3180,-28,306,19,
2043,7,27,2023,12,19,5,145,-2323,-823,3174,-24,254,21,
2044,7,27,2023,12,19,5,155,-2307,-782,3215,-24,229,30,
2045,7,27,2023,12,19,5,165,-2413,-750,3198,-26,210,24,
2046,7,27,2023,12,19,5,175,-2403,-771,3178,-28,155,-1,
2047,7,27,2023,12,19,5,185,-2303,-840,3194,-20,99,-26,
2048,7,27,2023,12,19,5,195,-2320,-847,3184,-2,62,-26,
2049,7,27,2023,12,19,5,205,-2296,-749,3171,-9,56,-19,
2050,7,27,2023,12,19,5,215,-2252,-728,3204,-43,52,-29,
2051,7,27,2023,12,19,5,225,-2282,-689,3251,-72,34,-48,
2052,7,27,2023,12,19,5,235,-2380,-751,3203,-89,17,-78,
2053,7,27,2023,12,19,5,245,-2386,-810,3170,-95,-11,-98,
2054,7,27,2023,12,19,5,255,-2345,-801,3168,-80,-44,-91,
2055,7,27,2023,12,19,5,265,-2307,-879,3190,-71,-84,-81,
2056,7,27,2023,12,19,5,275,-2249,-841,3211,-64,-99,-59,
2057,7,27,2023,12,19,5,285,-2137,-923,3208,-76,-71,-40,
2058,7,27,2023,12,19,5,295,-2217,-821,3239,-57,-32,8,
2059,7,27,2023,12,19,5,305,-2347,-700,3181,-18,-28,58,
2060,7,27,2023,12,19,5,315,-2320,-589,3225,-15,-54,53,
2061,7,27,2023,12,19,5,325,-2271,-744,3233,-19,-41,33,
2062,7,27,2023,12,19,5,335,-2135,-914,3253,-18,33,58,
2063,7,27,2023,12,19,5,345,-2130,-958,3299,-16,169,116,
2064,7,27,2023,12,19,5,355,-2123,-976,3229,4,340,175,
2065,7,27,2023,12,19,5,365,-2090,-952,3222,13,504,247,
2066,7,27,2023,12,19,5,375,-2117,-903,3292,67,666,340,
2067,7,27,2023,12,19,5,385,-2217,-799,3258,129,849,432,
2068,7,27,2023,12,19,5,395,-2239,-676,3271,124,1065,493,
2069,7,27,2023,12,19,5,405,-2444,-518,3296,57,1337,502,
2070,7,27,2023,12,19,5,415,-2257,-577,3383,-86,1701,490,
2071,7,27,2023,12,19,5,425,-2037,-733,3462,-248,2158,540,
2072,7,27,2023,12,19,5,435,-2134,-639,3495,-348,2737,631,
2073,7,27,2023,12,19,5,445,-2287,-446,3424,-485,3440,643,
2074,7,27,2023,12,19,5,455,-2368,-461,3451,-754,4231,600,
2075,7,27,2023,12,19,5,465,-2282,-528,3502,-980,5019,556,
2076,7,27,2023,12,19,5,475,-2414,-460,3459,-1144,5882,454,
2077,7,27,2023,12,19,5,485,-2535,-309,3443,-1293,6822,259,
2078,7,27,2023,12,19,5,495,-2766,-576,3500,-1441,7681,68,
2079,7,27,2023,12,19,5,505,-2842,-1098,3425,-1409,8369,40,
2080,7,27,2023,12,19,5,515,-3053,-1142,3493,-1362,9135,110,
2081,7,27,2023,12,19,5,525,-3680,-1058,3521,-1539,9811,176,
2082,7,27,2023,12,19,5,535,-4591,-1289,3349,-1732,10075,244,
2083,7,27,2023,12,19,5,545,-5236,-1714,3495,-1619,9814,252,
2084,7,27,2023,12,19,5,555,-5838,-2412,3063,-1189,9095,404,
2085,7,27,2023,12,19,5,565,-6898,-3885,2759,-481,8122,1096,
2086,7,27,2023,12,19,5,575,-7927,-942,3712,-100,6713,1657,
2087,7,27,2023,12,19,5,585,-6376,393,-1662,-1386,5294,2197,
2088,7,27,2023,12,19,5,595,-8438,413,-3794,-3179,6186,3189,
2089,7,27,2023,12,19,5,605,-9449,1949,-4759,-4181,6884,4354,
2090,7,27,2023,12,19,5,615,-14969,-746,-1033,-5143,8021,5465,
2091,7,27,2023,12,19,5,625,-13657,-2921,1297,-5283,6643,5441,
2092,7,27,2023,12,19,5,635,-9635,-3474,447,-3873,4700,5227,
2093,7,27,2023,12,19,5,645,-7405,-2760,309,-1918,4594,5062,
2094,7,27,2023,12,19,5,655,-6107,-2337,771,-576,5181,4372,
2095,7,27,2023,12,19,5,665,-5032,-2414,1273,365,5880,3303,
2096,7,27,2023,12,19,5,675,-4540,-2332,2155,1275,6473,2241,
