Packet #, Month, Day, Year, Hour, Minute, Second, MS, ACC X, ACC Y, ACC Z, GYR X, GYR Y, GYR Z
1,7,27,2023,13,13,15,66,2517,3206,2689,2178,12119,-2357,
2,7,27,2023,13,13,15,76,2626,3014,2822,2488,12347,-3362,
3,7,27,2023,13,13,15,86,2695,2747,3037,2880,12418,-4214,
4,7,27,2023,13,13,15,96,3065,2459,3371,3418,12379,-4900,
5,7,27,2023,13,13,15,106,3531,2229,3762,4088,12380,-5444,
6,7,27,2023,13,13,15,116,3721,2204,3923,4691,12485,-5905,
7,7,27,2023,13,13,15,126,3739,2022,4305,5205,12602,-6167,
8,7,27,2023,13,13,15,136,3968,1852,4778,5755,12717,-6265,
9,7,27,2023,13,13,15,146,4357,1649,5426,6277,12880,-6357,
10,7,27,2023,13,13,15,156,4990,1615,6134,6786,13127,-6547,
11,7,27,2023,13,13,15,166,6057,2224,6389,7153,13383,-6890,
12,7,27,2023,13,13,15,176,7783,3679,6081,7109,13586,-7211,
13,7,27,2023,13,13,15,186,9534,4809,5203,6188,13657,-7544,
14,7,27,2023,13,13,15,196,10498,3629,4126,4504,13328,-8035,
15,7,27,2023,13,13,15,206,10431,-1925,3145,3605,12108,-8714,
16,7,27,2023,13,13,15,216,11212,-5847,1413,5650,10154,-9456,
17,7,27,2023,13,13,15,226,12030,-6436,111,9844,7689,-9771,
18,7,27,2023,13,13,15,236,13640,-3412,-1621,12009,4867,-9977,
19,7,27,2023,13,13,15,246,16019,781,-4475,8514,2933,-9413,
20,7,27,2023,13,13,15,256,15923,-2059,-6837,1607,1873,-6949,
21,7,27,2023,13,13,15,266,14355,-8168,-6924,-1261,781,-3548,
22,7,27,2023,13,13,15,276,12901,-8279,-5871,884,-718,-892,
23,7,27,2023,13,13,15,286,11303,-2656,-4364,2548,-2325,745,
24,7,27,2023,13,13,15,296,12095,4085,-5550,-2119,-4845,2951,
25,7,27,2023,13,13,15,306,8941,35,-7985,-11503,-9922,7697,
26,7,27,2023,13,13,15,316,10583,-2510,6877,-15305,-14323,12580,
27,7,27,2023,13,13,15,326,18750,3962,8777,-9908,-15594,11078,
28,7,27,2023,13,13,15,336,13509,-1679,8895,-6590,-12308,6081,
29,7,27,2023,13,13,15,346,19548,-8700,14185,-6296,-6293,4019,
30,7,27,2023,13,13,15,356,4512,-1452,6235,-4388,592,3120,
31,7,27,2023,13,13,15,366,859,-636,5318,-2077,791,1411,
32,7,27,2023,13,13,15,376,1007,-2117,3766,-1497,-744,1761,
33,7,27,2023,13,13,15,386,2117,-533,1861,-783,-1603,1585,
34,7,27,2023,13,13,15,396,3515,2626,2951,-616,-1273,1097,
35,7,27,2023,13,13,15,406,3702,2582,4602,-924,64,1029,
36,7,27,2023,13,13,15,416,3463,-59,5260,-1034,-44,1216,
37,7,27,2023,13,13,15,426,2479,-1240,4282,-735,-1041,1073,
38,7,27,2023,13,13,15,436,2364,216,4081,-253,-1462,600,
39,7,27,2023,13,13,15,446,2627,1260,4560,-230,-1518,417,
40,7,27,2023,13,13,15,456,2649,983,4981,-266,-1569,444,
41,7,27,2023,13,13,15,466,1703,1189,5493,-20,-2304,692,
42,7,27,2023,13,13,15,476,1862,1283,5492,102,-3302,917,
43,7,27,2023,13,13,15,486,3331,377,5026,116,-4347,1136,
44,7,27,2023,13,13,15,496,3096,347,4979,386,-5489,1222,
45,7,27,2023,13,13,15,506,2072,1021,5318,413,-6263,1206,
46,7,27,2023,13,13,15,516,2015,1092,5182,395,-7031,1316,
47,7,27,2023,13,13,15,526,1790,1001,4700,299,-7906,1556,
48,7,27,2023,13,13,15,536,1323,1410,4961,138,-8981,1948,
49,7,27,2023,13,13,15,546,1362,639,4831,-405,-10011,2121,
50,7,27,2023,13,13,15,556,1916,-479,3472,-583,-11233,2280,
51,7,27,2023,13,13,15,566,4381,-596,3376,101,-12569,2189,
52,7,27,2023,13,13,15,576,3916,-95,3020,572,-13140,1825,
53,7,27,2023,13,13,15,586,5324,433,3241,861,-13054,1338,
54,7,27,2023,13,13,15,596,4689,899,3453,1031,-12312,1141,
55,7,27,2023,13,13,15,606,4043,1143,3317,1214,-11835,1311,
56,7,27,2023,13,13,15,616,3932,1629,2464,1432,-11361,1498,
57,7,27,2023,13,13,15,626,3893,878,1419,1283,-11155,2001,
58,7,27,2023,13,13,15,636,4961,2013,1316,1258,-10937,2398,
59,7,27,2023,13,13,15,646,4925,1963,1794,940,-9724,2523,
60,7,27,2023,13,13,15,656,1272,432,1403,827,-8873,2937,
61,7,27,2023,13,13,15,666,2723,22,2223,1489,-9415,3067,
62,7,27,2023,13,13,15,676,2095,-1375,3082,2921,-9449,2957,
63,7,27,2023,13,13,15,686,5208,-1678,3154,4950,-9970,3680,
64,7,27,2023,13,13,15,696,8488,419,4196,6861,-9168,4814,
65,7,27,2023,13,13,15,706,7015,1894,4580,7516,-6661,5183,
66,7,27,2023,13,13,15,716,6621,2575,5198,7162,-4425,5272,
67,7,27,2023,13,13,15,726,6733,3752,5468,6234,-2628,5390,
68,7,27,2023,13,13,15,736,6891,4248,5817,5040,-1080,5624,
69,7,27,2023,13,13,15,746,6982,4599,6124,3671,139,5831,
70,7,27,2023,13,13,15,756,6828,5354,6429,2245,1196,5847,
71,7,27,2023,13,13,15,766,6467,5943,6368,549,2285,5640,
72,7,27,2023,13,13,15,776,5824,6067,6132,-1440,3477,5249,
73,7,27,2023,13,13,15,786,5323,5657,5713,-3417,4664,4652,
74,7,27,2023,13,13,15,796,4307,4731,5189,-4992,5853,3873,
75,7,27,2023,13,13,15,806,3214,3729,4590,-5719,6867,2933,
76,7,27,2023,13,13,15,816,2180,2902,3838,-5618,7649,1899,
77,7,27,2023,13,13,15,826,1286,2261,3027,-4971,8186,862,
78,7,27,2023,13,13,15,836,822,1843,2689,-3938,8431,-117,
79,7,27,2023,13,13,15,846,1378,1841,2565,-2767,8458,-1212,
80,7,27,2023,13,13,15,856,2225,1909,2328,-1652,8777,-2397,
81,7,27,2023,13,13,15,866,2769,1923,1983,-703,9372,-3608,
82,7,27,2023,13,13,15,876,2829,2056,1671,34,10199,-4655,
83,7,27,2023,13,13,15,886,2320,2164,1458,548,10933,-5340,
84,7,27,2023,13,13,15,896,1870,1924,1652,917,11164,-5492,
85,7,27,2023,13,13,15,906,2167,1145,2021,1520,10974,-5251,
86,7,27,2023,13,13,15,926,3463,798,3009,4019,11145,-4507,
87,7,27,2023,13,13,15,936,3842,1530,3466,5211,11502,-4143,
88,7,27,2023,13,13,15,946,3989,2091,3948,5713,12027,-3899,
89,7,27,2023,13,13,15,956,3719,1879,4598,5632,12484,-3786,
90,7,27,2023,13,13,15,966,3644,940,5093,5631,12717,-3791,
91,7,27,2023,13,13,15,976,3722,339,5555,6354,12787,-3841,
92,7,27,2023,13,13,15,986,4324,728,6197,7560,12695,-3897,
93,7,27,2023,13,13,15,996,5444,1116,6986,8527,12513,-4171,
94,7,27,2023,13,13,16,6,7394,1699,7530,8939,12414,-4930,
95,7,27,2023,13,13,16,16,9861,2569,7281,8637,12474,-6216,
96,7,27,2023,13,13,16,26,11216,2397,6298,7325,12456,-7853,
97,7,27,2023,13,13,16,36,11279,-414,5184,5734,11667,-9436,
98,7,27,2023,13,13,16,46,11329,-4870,3751,5313,9909,-10805,
99,7,27,2023,13,13,16,56,12296,-7556,1918,6736,7656,-11875,
100,7,27,2023,13,13,16,66,15442,-4813,-186,8805,5305,-12293,
101,7,27,2023,13,13,16,76,17945,-441,-3390,7723,3453,-11314,
102,7,27,2023,13,13,16,86,17689,-1988,-6161,2944,2234,-8489,
103,7,27,2023,13,13,16,96,16468,-6455,-6674,-290,1270,-4771,
104,7,27,2023,13,13,16,106,14403,-7201,-6223,170,260,-1391,
105,7,27,2023,13,13,16,116,12333,-3823,-5247,1119,-999,1157,
106,7,27,2023,13,13,16,126,10731,-368,-4821,-571,-3006,3171,
107,7,27,2023,13,13,16,136,13427,-1361,-7325,-5978,-6803,5374,
108,7,27,2023,13,13,16,146,2872,-987,-1095,-10245,-10964,7958,
109,7,27,2023,13,13,16,156,13880,4198,9880,-9158,-13899,8799,
110,7,27,2023,13,13,16,166,10940,3154,4030,-6621,-12676,7092,
111,7,27,2023,13,13,16,176,12505,-3281,8691,-4352,-11014,5037,
112,7,27,2023,13,13,16,186,17333,-2002,13073,-6129,-5928,4596,
113,7,27,2023,13,13,16,196,1019,2347,3793,-5305,1066,3831,
114,7,27,2023,13,13,16,206,1726,-517,3627,-3809,1596,2499,
115,7,27,2023,13,13,16,216,4346,-4897,2409,-3385,905,2526,
116,7,27,2023,13,13,16,226,3055,-2702,3142,-1678,-150,1641,
117,7,27,2023,13,13,16,236,3046,2183,4861,-848,117,662,
118,7,27,2023,13,13,16,246,504,3345,6385,-895,761,647,
119,7,27,2023,13,13,16,256,1601,315,6051,-947,79,1015,
120,7,27,2023,13,13,16,266,1412,76,4734,-705,-1017,1084,
121,7,27,2023,13,13,16,276,4492,-75,3220,-579,-1652,917,
122,7,27,2023,13,13,16,286,3591,-109,3932,-360,-1800,734,
123,7,27,2023,13,13,16,296,1978,1315,5077,-190,-2014,456,
124,7,27,2023,13,13,16,306,1344,1444,5793,-264,-2616,534,
125,7,27,2023,13,13,16,316,1818,1295,6048,-22,-3613,807,
126,7,27,2023,13,13,16,326,1323,1141,6546,59,-4808,1124,
127,7,27,2023,13,13,16,336,2004,312,6456,92,-5988,1212,
128,7,27,2023,13,13,16,346,3295,438,5419,256,-7401,1462,
129,7,27,2023,13,13,16,356,2537,440,4965,271,-8883,1798,
130,7,27,2023,13,13,16,366,1332,892,4843,375,-9741,2061,
131,7,27,2023,13,13,16,376,119,1451,4957,-6,-10436,2465,
132,7,27,2023,13,13,16,386,1321,534,4410,-750,-11416,2664,
133,7,27,2023,13,13,16,396,2256,471,4320,-827,-12490,2664,
134,7,27,2023,13,13,16,406,3694,33,3130,-328,-13276,2598,
135,7,27,2023,13,13,16,416,5545,-151,2356,107,-14016,2438,
136,7,27,2023,13,13,16,426,5801,979,3094,479,-13712,2074,
137,7,27,2023,13,13,16,436,4172,585,3427,445,-12852,2001,
138,7,27,2023,13,13,16,446,3957,588,2642,1137,-12076,1914,
139,7,27,2023,13,13,16,456,4231,-255,2164,1755,-11588,2133,
140,7,27,2023,13,13,16,466,4656,229,1122,2583,-10494,1891,
141,7,27,2023,13,13,16,476,4797,1173,416,2877,-9336,2210,
142,7,27,2023,13,13,16,486,2668,540,344,2831,-8835,2412,
143,7,27,2023,13,13,16,496,3169,522,1785,3436,-9006,2510,
144,7,27,2023,13,13,16,506,2003,-692,2759,4027,-8590,2729,
145,7,27,2023,13,13,16,516,5605,269,2458,5029,-8665,3218,
146,7,27,2023,13,13,16,526,7965,2874,3725,5579,-7547,4040,
147,7,27,2023,13,13,16,536,5204,3139,4620,4579,-5242,4441,
148,7,27,2023,13,13,16,546,5522,3199,4949,3134,-3842,4457,
149,7,27,2023,13,13,16,556,6315,3345,5126,1893,-2613,4541,
150,7,27,2023,13,13,16,566,6591,3409,5502,913,-1313,4733,
151,7,27,2023,13,13,16,576,6535,3685,6007,88,-251,4980,
152,7,27,2023,13,13,16,586,6220,4306,6461,-695,414,5231,
153,7,27,2023,13,13,16,596,5752,4937,6629,-1679,845,5381,
154,7,27,2023,13,13,16,606,5273,5479,6653,-2805,1300,5410,
155,7,27,2023,13,13,16,616,5034,5587,6318,-4020,1910,5283,
156,7,27,2023,13,13,16,626,4597,5083,5918,-5059,2826,4902,
157,7,27,2023,13,13,16,636,4089,4273,5468,-5530,3957,4242,
158,7,27,2023,13,13,16,646,3359,3588,5017,-5329,5187,3260,
159,7,27,2023,13,13,16,656,2441,3382,4512,-4602,6318,2116,
160,7,27,2023,13,13,16,666,2038,3363,4150,-3698,7252,937,
161,7,27,2023,13,13,16,676,2055,3268,3822,-2778,8052,-238,
162,7,27,2023,13,13,16,686,2257,3340,3432,-1938,8810,-1419,
163,7,27,2023,13,13,16,696,2705,3420,3153,-1146,9629,-2498,
164,7,27,2023,13,13,16,706,2821,3333,3000,-422,10451,-3410,
165,7,27,2023,13,13,16,716,2846,3105,2877,293,11105,-4168,
166,7,27,2023,13,13,16,726,2967,2604,2914,1137,11566,-4728,
167,7,27,2023,13,13,16,736,3192,2471,3070,2159,11868,-5120,
168,7,27,2023,13,13,16,746,3244,2644,3317,3098,12139,-5337,
169,7,27,2023,13,13,16,756,3364,2438,3433,3841,12389,-5337,
170,7,27,2023,13,13,16,766,3196,2038,3529,4594,12664,-5273,
171,7,27,2023,13,13,16,786,3258,1282,4408,6129,12586,-5175,
172,7,27,2023,13,13,16,796,3412,1199,4922,6795,12689,-5261,
173,7,27,2023,13,13,16,806,3695,1157,5619,7337,12779,-5351,
174,7,27,2023,13,13,16,816,4356,1210,6414,7774,13002,-5534,
175,7,27,2023,13,13,16,826,5404,1393,6637,8006,13417,-5852,
176,7,27,2023,13,13,16,836,6801,1472,6187,7970,13807,-6206,
177,7,27,2023,13,13,16,846,7885,1521,5502,7480,13853,-6768,
178,7,27,2023,13,13,16,856,8904,545,4651,6214,13243,-7543,
179,7,27,2023,13,13,16,866,10307,-2113,3687,5308,12123,-8271,
180,7,27,2023,13,13,16,876,11521,-4927,2620,5844,10553,-8903,
181,7,27,2023,13,13,16,886,13064,-6225,1350,7480,8440,-9464,
182,7,27,2023,13,13,16,896,15286,-4761,-435,8531,6250,-9752,
183,7,27,2023,13,13,16,906,17780,-2271,-3005,7073,4307,-9076,
184,7,27,2023,13,13,16,916,17475,-3076,-5437,3208,2726,-7018,
185,7,27,2023,13,13,16,926,15275,-5406,-6476,175,912,-4165,
186,7,27,2023,13,13,16,936,14643,-3794,-7232,-1611,-1819,-1354,
187,7,27,2023,13,13,16,946,21805,-2455,-12232,-6093,-6215,1671,
188,7,27,2023,13,13,16,956,20719,-9923,-12473,-12489,-11260,6473,
189,7,27,2023,13,13,16,966,24858,-8547,6218,-9727,-17729,10746,
190,7,27,2023,13,13,16,976,19396,6356,14377,-4612,-14916,8116,
191,7,27,2023,13,13,16,986,2344,616,10936,-4272,-9734,4712,
192,7,27,2023,13,13,16,996,10598,1605,13509,-4998,-8030,4317,
193,7,27,2023,13,13,17,6,10828,659,2340,-5587,-1770,3956,
194,7,27,2023,13,13,17,16,3185,-2162,549,-3988,833,3165,
195,7,27,2023,13,13,17,26,1069,-3739,2108,-3189,357,2564,
196,7,27,2023,13,13,17,36,1629,-2774,3273,-1919,-291,1792,
197,7,27,2023,13,13,17,46,4671,1663,5852,-959,-13,676,
198,7,27,2023,13,13,17,56,2459,3386,7994,-1092,914,413,
199,7,27,2023,13,13,17,66,3426,195,6592,-1169,-123,1000,
200,7,27,2023,13,13,17,76,3596,-857,4489,-864,-1630,1212,
201,7,27,2023,13,13,17,86,2195,-1330,3946,-467,-2079,860,
202,7,27,2023,13,13,17,96,799,-76,5212,-139,-2471,267,
203,7,27,2023,13,13,17,106,1854,1518,6439,167,-3293,131,
204,7,27,2023,13,13,17,116,1473,2055,6692,257,-4431,459,
205,7,27,2023,13,13,17,126,3328,1402,5726,251,-5765,889,
206,7,27,2023,13,13,17,136,3043,1181,5407,231,-7402,1385,
207,7,27,2023,13,13,17,146,1668,715,5145,240,-8487,1686,
208,7,27,2023,13,13,17,156,496,1041,4924,329,-9334,1967,
209,7,27,2023,13,13,17,166,1277,1060,5113,161,-10194,2172,
210,7,27,2023,13,13,17,176,1362,1190,4975,-469,-11000,2455,
211,7,27,2023,13,13,17,186,2580,60,4022,-790,-12152,2648,
212,7,27,2023,13,13,17,196,4460,85,3961,-299,-13846,2832,
213,7,27,2023,13,13,17,206,5108,176,3798,66,-14434,2678,
214,7,27,2023,13,13,17,216,5351,810,4250,573,-14032,2318,
215,7,27,2023,13,13,17,226,3378,820,4078,848,-13229,2129,
216,7,27,2023,13,13,17,236,4687,772,3809,1601,-12976,1979,
217,7,27,2023,13,13,17,246,5217,1352,2180,2348,-12472,2353,
218,7,27,2023,13,13,17,256,6583,2028,1790,2483,-11718,2907,
219,7,27,2023,13,13,17,266,5349,529,1591,2245,-9847,3166,
220,7,27,2023,13,13,17,276,3692,42,1684,2892,-8743,3219,
221,7,27,2023,13,13,17,286,2808,-1954,2210,3973,-7699,3243,
222,7,27,2023,13,13,17,296,9263,235,3475,5731,-6719,3640,
223,7,27,2023,13,13,17,306,7709,2229,5344,6057,-4130,4523,
224,7,27,2023,13,13,17,316,3937,2234,5600,4959,-1989,4754,
225,7,27,2023,13,13,17,326,4436,2526,5685,3621,-1548,5142,
226,7,27,2023,13,13,17,336,4397,2710,5890,2676,-1253,5839,
227,7,27,2023,13,13,17,346,4457,3241,5968,2230,-1042,6567,
228,7,27,2023,13,13,17,356,4336,3894,6039,1867,-868,7323,
229,7,27,2023,13,13,17,366,3748,4163,6591,1472,-680,7971,
230,7,27,2023,13,13,17,376,4084,4264,7337,1125,-739,8360,
231,7,27,2023,13,13,17,386,5048,5118,7787,991,-749,8390,
232,7,27,2023,13,13,17,396,5628,6471,7833,703,-315,7947,
233,7,27,2023,13,13,17,406,5604,7415,7492,-431,600,6927,
234,7,27,2023,13,13,17,416,4903,7188,6820,-2173,1926,5447,
235,7,27,2023,13,13,17,426,3750,6602,6070,-3704,3384,3538,
236,7,27,2023,13,13,17,436,2569,5890,5155,-4817,4682,1373,
237,7,27,2023,13,13,17,446,1942,4520,4231,-5379,5729,-818,
238,7,27,2023,13,13,17,456,1503,3140,3567,-5071,6549,-2959,
239,7,27,2023,13,13,17,466,1284,2586,3238,-3898,7151,-4893,
240,7,27,2023,13,13,17,476,1309,2685,3021,-2504,7761,-6475,
241,7,27,2023,13,13,17,486,2007,3008,2851,-1359,8507,-7631,
242,7,27,2023,13,13,17,496,2826,3043,2798,-551,9526,-8296,
243,7,27,2023,13,13,17,506,3347,2645,2774,44,10660,-8543,
244,7,27,2023,13,13,17,516,3733,2277,2785,822,11695,-8352,
245,7,27,2023,13,13,17,526,3586,2325,2963,1733,12600,-7828,
246,7,27,2023,13,13,17,536,3510,1927,3052,2497,13100,-7045,
247,7,27,2023,13,13,17,546,3913,1616,3151,3501,13383,-6118,
248,7,27,2023,13,13,17,556,3867,1790,3548,4733,13628,-5282,
249,7,27,2023,13,13,17,566,3753,1693,4113,5724,13724,-4646,
250,7,27,2023,13,13,17,576,4199,1289,4866,6629,13788,-4242,
251,7,27,2023,13,13,17,586,5171,1366,5711,7767,13860,-4099,
252,7,27,2023,13,13,17,596,6749,2064,6460,8893,14029,-4272,
253,7,27,2023,13,13,17,606,8699,3413,7014,9381,14486,-4854,
254,7,27,2023,13,13,17,616,11305,4845,6750,9048,15207,-5733,
255,7,27,2023,13,13,17,626,12554,3310,5843,7772,15743,-6961,
256,7,27,2023,13,13,17,646,13177,-4345,4547,6205,12936,-10292,
257,7,27,2023,13,13,17,656,13625,-10092,2890,8247,10015,-11462,
258,7,27,2023,13,13,17,666,15281,-9938,1397,12122,6969,-12451,
259,7,27,2023,13,13,17,676,18864,-3340,-1150,13123,4134,-12896,
260,7,27,2023,13,13,17,686,20866,532,-4908,6361,2488,-11266,
261,7,27,2023,13,13,17,696,19405,-6037,-6688,-2440,1863,-7349,
262,7,27,2023,13,13,17,706,17334,-11872,-6428,-4125,1155,-3137,
263,7,27,2023,13,13,17,716,15329,-10091,-5436,-613,-4,5,
264,7,27,2023,13,13,17,726,13302,-5801,-3558,1012,-1577,1585,
265,7,27,2023,13,13,17,736,10569,-2260,-1300,-1167,-3340,2079,
266,7,27,2023,13,13,17,746,9165,-82,-3386,-5767,-6545,4307,
267,7,27,2023,13,13,17,756,-1001,7688,1457,-10710,-9794,9209,
268,7,27,2023,13,13,17,766,11440,3581,9311,-12073,-11405,12802,
269,7,27,2023,13,13,17,776,18464,2856,3135,-8494,-11998,8724,
270,7,27,2023,13,13,17,786,11951,-3420,8991,-5083,-11890,4265,
271,7,27,2023,13,13,17,796,11961,-4011,17757,-5787,-8614,4431,
272,7,27,2023,13,13,17,806,4280,-1513,6214,-4692,-2167,3610,
273,7,27,2023,13,13,17,816,6034,-3063,2600,-1921,-776,1652,
274,7,27,2023,13,13,17,826,3746,-4513,1981,-1367,-730,1757,
275,7,27,2023,13,13,17,836,2074,897,2203,-554,-691,1105,
276,7,27,2023,13,13,17,846,2115,4796,3976,-725,44,901,
277,7,27,2023,13,13,17,856,2295,2314,5961,-1271,273,1321,
278,7,27,2023,13,13,17,866,2124,309,5262,-1075,-436,1488,
279,7,27,2023,13,13,17,876,4959,-861,4029,-879,-1122,1351,
280,7,27,2023,13,13,17,886,3784,-333,3883,-617,-1194,909,
281,7,27,2023,13,13,17,896,1761,505,4751,-335,-1450,554,
282,7,27,2023,13,13,17,906,1265,1067,5282,-201,-1879,349,
283,7,27,2023,13,13,17,916,2296,847,6126,-159,-2775,492,
284,7,27,2023,13,13,17,926,2654,1237,6096,164,-3879,612,
285,7,27,2023,13,13,17,936,3064,209,6354,199,-5503,938,
286,7,27,2023,13,13,17,946,1767,633,6521,353,-7211,1065,
287,7,27,2023,13,13,17,956,678,1154,6160,369,-8434,1230,
288,7,27,2023,13,13,17,966,1630,1086,5405,317,-9405,1713,
289,7,27,2023,13,13,17,976,943,1708,5429,109,-10269,2176,
290,7,27,2023,13,13,17,986,1256,1397,4340,-416,-11357,2444,
291,7,27,2023,13,13,17,996,2725,513,3918,-712,-13229,2997,
292,7,27,2023,13,13,18,6,3504,1303,4255,-246,-14456,2966,
293,7,27,2023,13,13,18,16,3896,885,4344,120,-14818,2857,
294,7,27,2023,13,13,18,26,3775,442,3750,630,-14769,2599,
295,7,27,2023,13,13,18,36,4814,90,3563,1306,-14261,2358,
296,7,27,2023,13,13,18,46,3809,98,1579,1849,-13724,2165,
297,7,27,2023,13,13,18,56,6300,705,1732,2075,-13891,2248,
298,7,27,2023,13,13,18,66,6480,1675,2782,2015,-12215,2327,
299,7,27,2023,13,13,18,76,3152,-182,2996,1125,-10319,2659,
300,7,27,2023,13,13,18,86,1201,-41,2482,852,-10269,2619,
301,7,27,2023,13,13,18,96,3472,767,2601,1098,-10419,2408,
302,7,27,2023,13,13,18,106,3141,706,2102,1757,-10076,2453,
303,7,27,2023,13,13,18,116,9269,3173,3153,3023,-9969,3268,
304,7,27,2023,13,13,18,126,7135,4187,4438,2780,-7475,3861,
305,7,27,2023,13,13,18,136,5529,4000,4690,1912,-5240,3841,
306,7,27,2023,13,13,18,146,5785,3288,5105,1122,-3770,3850,
307,7,27,2023,13,13,18,156,5748,2500,5494,1005,-2478,3937,
308,7,27,2023,13,13,18,166,5939,2004,5795,1469,-1475,4069,
309,7,27,2023,13,13,18,176,6247,2188,6230,2249,-750,4229,
310,7,27,2023,13,13,18,186,6515,3240,6715,2828,-249,4443,
311,7,27,2023,13,13,18,196,6399,4575,7014,2642,180,4680,
312,7,27,2023,13,13,18,206,6345,5902,6768,1521,693,4824,
313,7,27,2023,13,13,18,216,6440,6088,6204,-364,1598,4898,
314,7,27,2023,13,13,18,226,6247,5646,5655,-2275,3029,4684,
315,7,27,2023,13,13,18,236,5410,5279,5557,-3737,4706,4159,
316,7,27,2023,13,13,18,246,4311,4830,5101,-4767,6238,3456,
317,7,27,2023,13,13,18,256,2825,4555,4370,-5482,7568,2556,
318,7,27,2023,13,13,18,266,1752,4016,3801,-5891,8616,1695,
319,7,27,2023,13,13,18,276,1260,3375,3536,-5701,9364,884,
320,7,27,2023,13,13,18,286,1338,2863,3468,-4837,9944,3,
321,7,27,2023,13,13,18,296,1821,2415,3364,-3565,10541,-1022,
322,7,27,2023,13,13,18,306,2357,2051,3230,-1723,11310,-2070,
323,7,27,2023,13,13,18,316,2612,2176,3084,366,12294,-3101,
324,7,27,2023,13,13,18,326,2634,2669,2880,2060,13191,-3976,
325,7,27,2023,13,13,18,336,2555,3093,2838,3073,13826,-4508,
326,7,27,2023,13,13,18,346,2509,3065,3014,3619,14198,-4635,
327,7,27,2023,13,13,18,356,2661,2484,3362,4080,14261,-4492,
328,7,27,2023,13,13,18,366,3268,1807,3846,4842,14036,-4259,
329,7,27,2023,13,13,18,376,4240,1525,4279,5949,13899,-4179,
330,7,27,2023,13,13,18,386,4688,1817,4865,7069,14113,-4336,
331,7,27,2023,13,13,18,396,5236,2462,5474,7794,14460,-4653,
332,7,27,2023,13,13,18,406,5876,2789,6161,7934,14830,-5156,
333,7,27,2023,13,13,18,416,6571,2577,6670,7619,15073,-5919,
334,7,27,2023,13,13,18,426,8390,2562,6425,7440,15063,-6962,
335,7,27,2023,13,13,18,436,10778,2585,5623,7166,14859,-8460,
336,7,27,2023,13,13,18,446,11911,2178,4818,6111,14281,-10445,
337,7,27,2023,13,13,18,456,12370,-425,4158,4669,12979,-12266,
338,7,27,2023,13,13,18,466,12913,-5381,2736,4812,10962,-13260,
339,7,27,2023,13,13,18,476,13651,-8166,1501,7909,8560,-13411,
340,7,27,2023,13,13,18,486,16110,-4963,167,11643,5817,-12913,
341,7,27,2023,13,13,18,506,20104,-320,-4733,4910,3645,-8712,
342,7,27,2023,13,13,18,516,17015,-5446,-5927,-405,3901,-4563,
343,7,27,2023,13,13,18,526,14612,-8731,-5995,-894,3292,-564,
344,7,27,2023,13,13,18,536,13056,-6463,-5041,1002,1832,1917,
345,7,27,2023,13,13,18,546,11764,-2018,-4705,330,-540,3136,
346,7,27,2023,13,13,18,556,20628,-251,-10675,-4929,-5340,5975,
347,7,27,2023,13,13,18,566,6916,-3638,-4123,-11553,-11546,12856,
348,7,27,2023,13,13,18,576,23944,-203,12207,-9159,-15945,15717,
349,7,27,2023,13,13,18,586,17487,12182,8015,-5419,-14709,8733,
350,7,27,2023,13,13,18,596,5120,3854,8229,-4283,-13877,4043,
351,7,27,2023,13,13,18,606,14854,-1967,17042,-6065,-10516,4817,
352,7,27,2023,13,13,18,616,5910,-2632,3299,-6619,-2277,5043,
353,7,27,2023,13,13,18,626,7247,-3338,-1924,-3827,116,3196,
354,7,27,2023,13,13,18,636,3390,-4971,-15,-2987,597,2640,
355,7,27,2023,13,13,18,646,435,17,2903,-2004,940,1539,
356,7,27,2023,13,13,18,656,3129,4202,6056,-1544,1563,854,
357,7,27,2023,13,13,18,666,1557,2225,8955,-1700,1902,1160,
358,7,27,2023,13,13,18,676,4696,-1964,6804,-1437,53,1667,
359,7,27,2023,13,13,18,686,2857,-635,4172,-927,-1553,1468,
360,7,27,2023,13,13,18,696,1351,-177,3730,-430,-1853,824,
361,7,27,2023,13,13,18,706,1636,200,4424,-174,-2049,513,
362,7,27,2023,13,13,18,716,2130,967,5488,-247,-2639,388,
363,7,27,2023,13,13,18,726,4796,66,5822,-219,-3388,440,
364,7,27,2023,13,13,18,736,3973,414,6770,-3,-4974,772,
365,7,27,2023,13,13,18,746,1051,698,6901,43,-6555,702,
366,7,27,2023,13,13,18,756,-435,1113,6689,247,-8202,808,
367,7,27,2023,13,13,18,766,699,909,6970,489,-9909,1166,
368,7,27,2023,13,13,18,776,2478,1043,5746,819,-10943,1675,
369,7,27,2023,13,13,18,786,2510,1010,4873,543,-12388,2646,
370,7,27,2023,13,13,18,796,994,520,5806,-394,-14175,3156,
371,7,27,2023,13,13,18,806,106,-62,5796,-304,-15606,3161,
372,7,27,2023,13,13,18,816,2873,236,5198,588,-17147,3006,
373,7,27,2023,13,13,18,826,5751,733,3953,967,-17432,2428,
374,7,27,2023,13,13,18,836,6832,-330,2251,925,-17153,2216,
375,7,27,2023,13,13,18,846,8549,810,2935,1439,-16339,2063,
376,7,27,2023,13,13,18,856,7265,1312,2879,1560,-14280,2088,
377,7,27,2023,13,13,18,866,7404,1753,2571,1528,-12020,2202,
378,7,27,2023,13,13,18,876,3821,1644,482,1623,-10173,2527,
379,7,27,2023,13,13,18,886,1276,-642,-501,1938,-10386,3311,
380,7,27,2023,13,13,18,896,5682,-848,-879,3469,-11431,3989,
381,7,27,2023,13,13,18,906,11078,1823,1755,4733,-10242,3928,
382,7,27,2023,13,13,18,916,6633,2388,3472,4599,-6797,3232,
383,7,27,2023,13,13,18,926,5558,3272,4269,3434,-5347,2806,
384,7,27,2023,13,13,18,936,5243,3294,4789,1656,-4906,2828,
385,7,27,2023,13,13,18,946,5037,2895,5052,129,-4875,3180,
386,7,27,2023,13,13,18,956,4968,2699,5340,-944,-5150,3728,
387,7,27,2023,13,13,18,966,4995,2396,5679,-1476,-5620,4330,
388,7,27,2023,13,13,18,976,5451,1972,6040,-1420,-6154,4942,
389,7,27,2023,13,13,18,986,6160,1497,6586,-786,-6495,5493,
390,7,27,2023,13,13,18,996,7363,1225,7119,383,-6516,5826,
391,7,27,2023,13,13,19,6,8894,2357,7246,1769,-5968,5914,
392,7,27,2023,13,13,19,16,9677,4779,7156,2298,-4560,5898,
393,7,27,2023,13,13,19,26,8998,6403,6834,1249,-2384,5861,
394,7,27,2023,13,13,19,36,7158,6343,6325,-758,7,5681,
395,7,27,2023,13,13,19,46,5240,5327,5917,-2730,2114,5248,
396,7,27,2023,13,13,19,56,4454,4315,5362,-4011,3814,4508,
397,7,27,2023,13,13,19,66,3831,4064,4411,-4419,5521,3522,
398,7,27,2023,13,13,19,76,2920,3834,3637,-4492,7306,2520,
399,7,27,2023,13,13,19,86,2255,3613,3089,-4385,9021,1606,
400,7,27,2023,13,13,19,96,1962,3448,2803,-3851,10690,718,
401,7,27,2023,13,13,19,106,1792,3199,2497,-2880,12133,-199,
402,7,27,2023,13,13,19,116,1699,2758,2170,-1689,13299,-1109,
403,7,27,2023,13,13,19,126,1975,2387,2007,-175,14296,-2018,
404,7,27,2023,13,13,19,136,2062,2246,2004,1661,15047,-2790,
405,7,27,2023,13,13,19,146,2190,2373,2063,3380,15511,-3451,
406,7,27,2023,13,13,19,156,2388,2485,2384,4747,15741,-4004,
407,7,27,2023,13,13,19,166,2832,2337,2956,5762,15742,-4449,
408,7,27,2023,13,13,19,176,3559,2024,3292,6585,15680,-4866,
409,7,27,2023,13,13,19,186,3768,1857,3723,7293,15807,-5233,
410,7,27,2023,13,13,19,196,3585,1477,4358,7798,15825,-5552,
411,7,27,2023,13,13,19,206,3831,717,4863,8298,15674,-5818,
412,7,27,2023,13,13,19,216,4587,777,5162,9065,15576,-6100,
413,7,27,2023,13,13,19,226,5208,1649,5784,9597,15638,-6451,
414,7,27,2023,13,13,19,236,5195,1508,6611,9144,15718,-7072,
415,7,27,2023,13,13,19,246,5807,1624,7647,7882,15773,-8135,
416,7,27,2023,13,13,19,256,7747,438,8210,6548,15699,-9279,
417,7,27,2023,13,13,19,266,10067,-781,7911,6045,15410,-10495,
418,7,27,2023,13,13,19,276,12277,-1199,6794,6082,14851,-11759,
419,7,27,2023,13,13,19,286,14614,-1569,5074,5858,13790,-12706,
420,7,27,2023,13,13,19,296,17185,-2443,3466,5487,12253,-13001,
421,7,27,2023,13,13,19,306,19471,-3289,1692,5494,10340,-12429,
422,7,27,2023,13,13,19,316,21489,-3717,-1124,5565,8212,-11009,
423,7,27,2023,13,13,19,326,21733,-4955,-4905,4813,6238,-8786,
424,7,27,2023,13,13,19,336,19633,-5914,-7511,3208,4260,-5894,
425,7,27,2023,13,13,19,346,18064,-5744,-7847,1344,1987,-2755,
426,7,27,2023,13,13,19,366,15362,-3367,-6479,-970,-2006,999,
427,7,27,2023,13,13,19,376,24751,1754,-13625,-3952,-7095,4182,
428,7,27,2023,13,13,19,386,7210,-4034,-3572,-10438,-14614,11707,
429,7,27,2023,13,13,19,396,27424,3902,15825,-6658,-19211,13366,
430,7,27,2023,13,13,19,406,14554,10310,9366,-4710,-15108,7116,
431,7,27,2023,13,13,19,416,8165,1234,8502,-4746,-14006,5394,
432,7,27,2023,13,13,19,426,20074,-2322,13226,-7617,-9007,5823,
433,7,27,2023,13,13,19,436,1998,-1254,2635,-5393,-940,3713,
434,7,27,2023,13,13,19,446,-676,-3538,2448,-2987,34,2404,
435,7,27,2023,13,13,19,456,5045,-4414,-151,-2644,-152,2473,
436,7,27,2023,13,13,19,466,7527,-8,2124,-1544,-559,1641,
437,7,27,2023,13,13,19,476,3229,3925,7758,-1163,680,848,
438,7,27,2023,13,13,19,486,-416,2023,9820,-1258,546,1239,
439,7,27,2023,13,13,19,496,1273,201,6819,-873,-1273,1500,
440,7,27,2023,13,13,19,506,5570,-1696,3360,-403,-2375,1237,
441,7,27,2023,13,13,19,516,4293,-1887,3651,-26,-3122,891,
442,7,27,2023,13,13,19,526,1866,353,5391,423,-3228,174,
443,7,27,2023,13,13,19,536,1283,1926,6365,484,-3685,0,
444,7,27,2023,13,13,19,546,1763,1575,7143,370,-4858,242,
445,7,27,2023,13,13,19,556,2750,1610,6735,531,-6614,625,
446,7,27,2023,13,13,19,566,2458,1354,6396,610,-8924,1302,
447,7,27,2023,13,13,19,576,1173,1936,6559,550,-10473,1687,
448,7,27,2023,13,13,19,586,-853,2231,6181,281,-11191,2306,
449,7,27,2023,13,13,19,596,389,1652,6654,-472,-13107,3049,
450,7,27,2023,13,13,19,606,1599,34,4759,-628,-15320,3539,
451,7,27,2023,13,13,19,616,4837,325,4636,496,-17741,3820,
452,7,27,2023,13,13,19,626,6421,1530,5522,1299,-18303,3411,
453,7,27,2023,13,13,19,636,7006,705,4888,1755,-16979,2917,
454,7,27,2023,13,13,19,646,6818,744,3226,3189,-15555,2786,
455,7,27,2023,13,13,19,656,7946,368,1642,4866,-14077,2893,
456,7,27,2023,13,13,19,666,8610,1580,358,6283,-12417,3616,
457,7,27,2023,13,13,19,676,4811,2252,-2624,6628,-11583,4662,
458,7,27,2023,13,13,19,686,3314,1686,-4764,5977,-12422,5507,
459,7,27,2023,13,13,19,696,13795,3836,-2309,4948,-12723,5155,
460,7,27,2023,13,13,19,706,10148,4763,1060,3045,-8754,3544,
461,7,27,2023,13,13,19,716,6327,4477,2700,498,-6403,2347,
462,7,27,2023,13,13,19,726,5715,2601,4107,-1746,-6299,1927,
463,7,27,2023,13,13,19,736,5183,710,5054,-2378,-6828,1862,
464,7,27,2023,13,13,19,746,5578,23,5743,-1600,-7827,2118,
465,7,27,2023,13,13,19,756,5991,382,6076,54,-8890,2609,
466,7,27,2023,13,13,19,766,6359,1183,6219,1747,-9921,3400,
467,7,27,2023,13,13,19,776,6736,1974,6380,2919,-10720,4576,
468,7,27,2023,13,13,19,786,7234,2734,6495,3449,-11125,5897,
469,7,27,2023,13,13,19,796,8173,3314,6473,3459,-11005,7198,
470,7,27,2023,13,13,19,806,9515,3626,6708,3198,-10256,8278,
471,7,27,2023,13,13,19,816,10699,3763,7032,2808,-8862,8855,
472,7,27,2023,13,13,19,826,10787,4486,7031,2215,-6815,8738,
473,7,27,2023,13,13,19,836,9577,5550,6705,943,-4159,7941,
474,7,27,2023,13,13,19,846,7969,6084,6182,-1086,-1224,6721,
475,7,27,2023,13,13,19,856,5926,5837,5770,-3483,1663,5361,
476,7,27,2023,13,13,19,866,3873,5337,5140,-5705,4114,4075,
477,7,27,2023,13,13,19,876,2499,4528,4109,-7325,6138,3075,
478,7,27,2023,13,13,19,886,1667,3461,3003,-8139,8112,2261,
479,7,27,2023,13,13,19,896,1072,2521,2459,-7988,10255,1608,
480,7,27,2023,13,13,19,906,669,1915,2091,-6850,12515,1055,
481,7,27,2023,13,13,19,916,47,1904,1763,-4910,14654,562,
482,7,27,2023,13,13,19,926,-516,2025,1489,-2498,16215,233,
483,7,27,2023,13,13,19,936,-234,2240,1409,-152,17236,-193,
484,7,27,2023,13,13,19,946,650,2127,1646,2082,17996,-799,
485,7,27,2023,13,13,19,956,1768,2261,1833,3939,18553,-1785,
486,7,27,2023,13,13,19,966,2267,2810,2033,5076,19021,-2977,
487,7,27,2023,13,13,19,976,2429,3056,2170,5623,19097,-4026,
488,7,27,2023,13,13,19,986,2666,2822,2237,5736,18901,-4908,
489,7,27,2023,13,13,19,996,2554,1951,2817,5761,18509,-5596,
490,7,27,2023,13,13,20,6,2955,837,3688,6092,17702,-6224,
491,7,27,2023,13,13,20,16,3973,232,4255,6946,16884,-6780,
492,7,27,2023,13,13,20,26,5278,384,4702,8205,16627,-7352,
493,7,27,2023,13,13,20,36,6071,1620,5318,9145,16831,-7982,
494,7,27,2023,13,13,20,46,6866,2834,5895,8955,17334,-8543,
495,7,27,2023,13,13,20,56,7670,2951,6628,7864,17909,-9073,
496,7,27,2023,13,13,20,66,8752,2544,7652,6480,17919,-9648,
497,7,27,2023,13,13,20,76,11076,1730,8288,5503,17380,-10175,
498,7,27,2023,13,13,20,86,14260,1542,8144,5352,16711,-10905,
499,7,27,2023,13,13,20,96,17358,1985,6549,5119,15882,-11725,
500,7,27,2023,13,13,20,106,18931,922,4833,4327,14668,-12009,
501,7,27,2023,13,13,20,116,18191,-4052,3102,4123,12455,-11663,
502,7,27,2023,13,13,20,126,19123,-6547,542,6352,9477,-10936,
503,7,27,2023,13,13,20,136,20404,-4295,-3052,8769,6753,-9525,
504,7,27,2023,13,13,20,146,19663,-2845,-6449,7160,4861,-6818,
505,7,27,2023,13,13,20,156,18442,-5079,-7280,2716,3466,-3299,
506,7,27,2023,13,13,20,166,17562,-6527,-7042,-56,2354,-367,
507,7,27,2023,13,13,20,176,15384,-6040,-6398,-495,1077,1525,
508,7,27,2023,13,13,20,186,11978,-4214,-4551,-299,-1188,2647,
509,7,27,2023,13,13,20,196,14282,627,-5565,-1341,-4807,4118,
510,7,27,2023,13,13,20,206,6002,11229,-6132,-6096,-11431,9088,
511,7,27,2023,13,13,20,226,29007,8511,10966,-6373,-16940,10040,
512,7,27,2023,13,13,20,236,10929,55,9595,-4790,-14417,5175,
513,7,27,2023,13,13,20,246,9088,138,17001,-5848,-10825,6203,
514,7,27,2023,13,13,20,256,7425,-234,4680,-6508,-3967,5553,
515,7,27,2023,13,13,20,266,8128,-4363,-1058,-4030,-816,3367,
516,7,27,2023,13,13,20,276,2175,-4790,355,-3108,109,2830,
517,7,27,2023,13,13,20,286,-82,123,2276,-2107,241,1671,
518,7,27,2023,13,13,20,296,4556,4803,6297,-1922,1092,1241,
519,7,27,2023,13,13,20,306,5809,887,8803,-2045,1293,1485,
520,7,27,2023,13,13,20,316,2939,-798,6992,-1529,-336,1758,
521,7,27,2023,13,13,20,326,1046,-950,5169,-1047,-1515,1399,
522,7,27,2023,13,13,20,336,1921,-1056,4764,-490,-2181,874,
523,7,27,2023,13,13,20,346,2790,387,5539,-86,-2962,299,
524,7,27,2023,13,13,20,356,5238,194,6106,-78,-4135,269,
525,7,27,2023,13,13,20,366,2731,771,7201,55,-5932,458,
526,7,27,2023,13,13,20,376,267,1574,8035,190,-7400,533,
527,7,27,2023,13,13,20,386,463,1678,7911,373,-9266,935,
528,7,27,2023,13,13,20,396,689,1730,6602,689,-11058,1513,
529,7,27,2023,13,13,20,406,1675,1599,5539,739,-12901,2680,
530,7,27,2023,13,13,20,416,-347,1815,6766,-195,-14751,3521,
531,7,27,2023,13,13,20,426,556,-323,6300,-804,-16651,3775,
532,7,27,2023,13,13,20,436,3205,671,6441,440,-18633,3639,
533,7,27,2023,13,13,20,446,6255,657,3747,1332,-19354,3126,
534,7,27,2023,13,13,20,456,10301,-798,3644,1771,-19122,2842,
535,7,27,2023,13,13,20,466,9300,495,3058,3098,-16725,2505,
536,7,27,2023,13,13,20,476,9825,734,1191,3962,-14370,2846,
537,7,27,2023,13,13,20,486,7592,1111,-1703,4372,-13207,3969,
538,7,27,2023,13,13,20,496,4350,274,-4151,4471,-14100,5742,
539,7,27,2023,13,13,20,506,12070,2185,-5150,4838,-15351,6767,
540,7,27,2023,13,13,20,516,15819,4748,-324,3731,-12223,5890,
541,7,27,2023,13,13,20,526,9537,4941,2195,1622,-7525,4492,
542,7,27,2023,13,13,20,536,7673,4028,3843,-988,-6200,3615,
543,7,27,2023,13,13,20,546,6388,1121,5159,-2544,-6372,3249,
544,7,27,2023,13,13,20,556,6553,-275,6080,-2292,-7534,3211,
545,7,27,2023,13,13,20,566,7005,489,6617,-959,-9109,3337,
546,7,27,2023,13,13,20,576,6961,1643,7026,505,-10781,3749,
547,7,27,2023,13,13,20,586,7207,2253,7140,1574,-12380,4669,
548,7,27,2023,13,13,20,596,7690,2388,7059,2265,-13495,5791,
549,7,27,2023,13,13,20,606,8856,2838,6883,2756,-13948,6745,
550,7,27,2023,13,13,20,616,10563,3187,7155,3024,-13585,7490,
551,7,27,2023,13,13,20,626,12618,3641,7596,3163,-12250,7850,
552,7,27,2023,13,13,20,636,13804,5224,7612,2913,-9454,7559,
553,7,27,2023,13,13,20,646,12521,6801,7598,1507,-5236,6736,
554,7,27,2023,13,13,20,656,9638,7185,7428,-915,-792,5700,
555,7,27,2023,13,13,20,666,6832,6626,6957,-3476,2945,4823,
556,7,27,2023,13,13,20,676,4194,6089,6220,-5484,5925,4220,
557,7,27,2023,13,13,20,686,1939,5411,5202,-6769,8313,3752,
558,7,27,2023,13,13,20,696,318,4621,4117,-7312,10374,3367,
559,7,27,2023,13,13,20,706,-806,3813,3204,-6954,12360,3023,
560,7,27,2023,13,13,20,716,-2097,2967,2717,-5449,14221,2687,
561,7,27,2023,13,13,20,726,-2838,2278,2291,-2800,15458,2054,
562,7,27,2023,13,13,20,736,-1814,2599,2032,550,16341,1045,
563,7,27,2023,13,13,20,746,-373,2979,1809,3571,17333,-173,
564,7,27,2023,13,13,20,756,531,3801,1632,5763,18159,-1794,
565,7,27,2023,13,13,20,766,1202,4375,1924,6744,18693,-3521,
566,7,27,2023,13,13,20,776,1766,3756,2492,6855,18814,-5008,
567,7,27,2023,13,13,20,786,2224,2258,3148,7030,18430,-6082,
568,7,27,2023,13,13,20,796,3187,1270,3756,7793,17678,-6897,
569,7,27,2023,13,13,20,806,4230,1463,4468,8796,17111,-7578,
570,7,27,2023,13,13,20,816,4815,1908,5107,9249,16786,-8149,
571,7,27,2023,13,13,20,826,5090,2051,5671,8924,16694,-8598,
572,7,27,2023,13,13,20,836,5445,1739,6080,8326,16860,-8943,
573,7,27,2023,13,13,20,846,5349,675,6720,7873,17064,-9327,
574,7,27,2023,13,13,20,856,4735,-417,7651,7642,17022,-9906,
575,7,27,2023,13,13,20,866,6757,-1127,7633,8282,16762,-10209,
576,7,27,2023,13,13,20,876,9459,790,7869,9593,16848,-10460,
577,7,27,2023,13,13,20,886,10571,3196,7950,8879,16923,-10892,
578,7,27,2023,13,13,20,896,13183,3180,7669,6037,16954,-11368,
579,7,27,2023,13,13,20,906,17242,2183,7283,3351,16919,-12199,
580,7,27,2023,13,13,20,916,21278,2083,6459,1806,16415,-13208,
581,7,27,2023,13,13,20,926,22866,68,4081,1229,14922,-13617,
582,7,27,2023,13,13,20,936,21657,-4442,430,2404,12001,-12994,
583,7,27,2023,13,13,20,946,21906,-6408,-3007,5661,8286,-11281,
584,7,27,2023,13,13,20,956,21820,-6892,-5520,8401,4828,-8684,
585,7,27,2023,13,13,20,966,21205,-6213,-6339,8020,2415,-5626,
586,7,27,2023,13,13,20,976,20667,-4248,-6053,4450,1336,-2368,
587,7,27,2023,13,13,20,986,18005,-6154,-5669,215,719,947,
588,7,27,2023,13,13,20,996,12855,-5821,-4980,-1607,-1006,3571,
589,7,27,2023,13,13,21,6,18903,3042,-11057,-3405,-6323,7348,
590,7,27,2023,13,13,21,16,3458,8708,-3999,-11184,-14085,15407,
591,7,27,2023,13,13,21,26,29235,8149,10748,-12378,-19462,18043,
592,7,27,2023,13,13,21,36,21683,9213,7412,-8227,-19699,9744,
593,7,27,2023,13,13,21,46,19974,-5455,19041,-7951,-15233,5640,
594,7,27,2023,13,13,21,56,8359,-5785,14190,-8789,-4026,5807,
595,7,27,2023,13,13,21,66,6079,-4548,1709,-4669,212,3675,
596,7,27,2023,13,13,21,86,-187,377,1184,-1366,-1183,1721,
597,7,27,2023,13,13,21,96,2010,4770,3931,-1014,-595,1126,
598,7,27,2023,13,13,21,106,8255,877,6998,-1458,459,1330,
599,7,27,2023,13,13,21,116,3734,-1237,7862,-1321,-161,1653,
600,7,27,2023,13,13,21,126,-258,964,5456,-699,-1417,1228,
601,7,27,2023,13,13,21,136,1294,133,4786,-288,-2232,991,
602,7,27,2023,13,13,21,146,3277,-1177,5332,21,-2656,689,
603,7,27,2023,13,13,21,156,5389,-565,5824,646,-3768,690,
604,7,27,2023,13,13,21,166,2704,44,7416,861,-5425,777,
605,7,27,2023,13,13,21,176,-509,1122,8584,1071,-7044,541,
606,7,27,2023,13,13,21,186,-763,2635,8096,1360,-9087,741,
607,7,27,2023,13,13,21,196,962,1457,6140,1097,-11109,1495,
608,7,27,2023,13,13,21,206,1268,1325,5286,746,-13280,2683,
609,7,27,2023,13,13,21,216,505,267,5870,55,-15404,3049,
610,7,27,2023,13,13,21,226,105,94,5838,224,-16873,3070,
611,7,27,2023,13,13,21,236,4082,1475,5561,1420,-18192,2515,
612,7,27,2023,13,13,21,246,6810,301,3197,1722,-18557,2357,
613,7,27,2023,13,13,21,256,11089,892,4018,2156,-18122,2477,
614,7,27,2023,13,13,21,266,8372,1714,4098,2787,-15537,2426,
615,7,27,2023,13,13,21,276,8382,2531,3217,3429,-13313,2607,
616,7,27,2023,13,13,21,286,6742,3295,1062,3967,-11134,3182,
617,7,27,2023,13,13,21,296,2725,277,-1203,3974,-10792,4556,
618,7,27,2023,13,13,21,306,6877,-165,-2591,5297,-11584,5635,
619,7,27,2023,13,13,21,316,12047,1715,593,5781,-9783,5598,
620,7,27,2023,13,13,21,326,7246,3122,2408,5283,-5673,4428,
621,7,27,2023,13,13,21,336,5868,4140,3685,3829,-4060,3744,
622,7,27,2023,13,13,21,346,5509,4401,4875,1515,-3884,3869,
623,7,27,2023,13,13,21,356,5091,3935,5489,-559,-4234,4359,
624,7,27,2023,13,13,21,366,5192,3268,5942,-1802,-4983,5027,
625,7,27,2023,13,13,21,376,5349,2780,6476,-2058,-5855,5656,
626,7,27,2023,13,13,21,386,5713,2109,6766,-1537,-6802,6218,
627,7,27,2023,13,13,21,396,5979,1693,7221,-308,-7604,6705,
628,7,27,2023,13,13,21,406,6817,1966,7513,1340,-8161,7098,
629,7,27,2023,13,13,21,416,8497,2795,7908,2835,-8084,7331,
630,7,27,2023,13,13,21,426,10414,3872,8565,3798,-7165,7388,
631,7,27,2023,13,13,21,436,11327,5902,9262,3881,-5453,7221,
632,7,27,2023,13,13,21,446,10398,7917,9203,2521,-3011,6793,
633,7,27,2023,13,13,21,456,8331,8690,8600,-283,-304,6062,
634,7,27,2023,13,13,21,466,6104,8111,7844,-3753,2049,5250,
635,7,27,2023,13,13,21,476,4086,6709,6916,-6630,3902,4365,
636,7,27,2023,13,13,21,486,2671,5381,5645,-8257,5408,3412,
637,7,27,2023,13,13,21,496,1082,4294,4345,-8837,6875,2468,
638,7,27,2023,13,13,21,506,404,3289,3333,-8434,8440,1502,
639,7,27,2023,13,13,21,516,-253,2081,2905,-6926,10095,510,
640,7,27,2023,13,13,21,526,-367,1651,2554,-4334,11580,-547,
641,7,27,2023,13,13,21,536,-19,2176,2264,-1217,13033,-1480,
642,7,27,2023,13,13,21,546,660,2947,2048,1492,14394,-2216,
643,7,27,2023,13,13,21,556,1593,3452,1958,3371,15774,-2876,
644,7,27,2023,13,13,21,566,1825,3659,2102,4402,17077,-3459,
645,7,27,2023,13,13,21,576,2014,3336,2400,4889,17887,-3900,
646,7,27,2023,13,13,21,586,2526,2479,2806,5389,18142,-4162,
647,7,27,2023,13,13,21,596,2911,1685,3315,6189,17844,-4449,
648,7,27,2023,13,13,21,606,3668,1418,3772,7162,17239,-4870,
649,7,27,2023,13,13,21,616,4237,1593,4432,7923,16851,-5413,
650,7,27,2023,13,13,21,626,4686,1851,5067,8284,16669,-6003,
651,7,27,2023,13,13,21,636,5385,1740,5607,8392,16614,-6720,
652,7,27,2023,13,13,21,646,5864,1892,5961,8299,16723,-7669,
653,7,27,2023,13,13,21,656,6560,2363,6670,8123,16776,-8733,
654,7,27,2023,13,13,21,666,8557,1800,7264,7796,16683,-10018,
655,7,27,2023,13,13,21,676,10242,1771,7616,7223,16497,-11827,
656,7,27,2023,13,13,21,686,12741,2359,7579,6298,16028,-13425,
657,7,27,2023,13,13,21,696,16036,2114,7111,5193,15331,-14484,
658,7,27,2023,13,13,21,706,19783,1373,5973,4140,14474,-15007,
659,7,27,2023,13,13,21,716,21586,-592,4280,3807,13189,-14689,
660,7,27,2023,13,13,21,726,21418,-4160,1673,5019,10965,-13524,
661,7,27,2023,13,13,21,736,21997,-4876,-2143,7261,8115,-11786,
662,7,27,2023,13,13,21,746,21746,-4959,-6171,7985,5611,-8854,
663,7,27,2023,13,13,21,756,20399,-6874,-7463,6950,3971,-4709,
664,7,27,2023,13,13,21,766,18953,-5903,-6990,5691,3032,-856,
665,7,27,2023,13,13,21,776,17336,-4082,-6238,3195,2299,2256,
666,7,27,2023,13,13,21,786,13385,-4549,-4928,163,719,4122,
667,7,27,2023,13,13,21,796,11656,-1782,-6227,-1905,-2686,4947,
668,7,27,2023,13,13,21,806,12010,8985,-12027,-6473,-10191,8668,
669,7,27,2023,13,13,21,816,13084,-1634,3825,-13034,-18016,16179,
670,7,27,2023,13,13,21,826,32767,11397,14248,-7574,-21119,13223,
671,7,27,2023,13,13,21,836,16021,1239,10499,-6209,-16744,6731,
672,7,27,2023,13,13,21,846,15645,-2775,19036,-7448,-10664,6341,
673,7,27,2023,13,13,21,856,9384,265,5607,-7842,-2569,6300,
674,7,27,2023,13,13,21,866,1944,-4557,1282,-4793,79,3782,
675,7,27,2023,13,13,21,876,250,-4311,1140,-2972,118,2355,
676,7,27,2023,13,13,21,886,3,899,1346,-2016,6,1786,
677,7,27,2023,13,13,21,896,10289,1968,4165,-1794,640,1337,
678,7,27,2023,13,13,21,906,4561,54,8820,-1550,640,1388,
679,7,27,2023,13,13,21,916,-852,1703,8600,-930,-82,996,
680,7,27,2023,13,13,21,926,-47,532,5768,-866,-1592,1285,
681,7,27,2023,13,13,21,946,6178,-2086,4094,-34,-3509,737,
682,7,27,2023,13,13,21,956,2555,759,6726,365,-4583,223,
683,7,27,2023,13,13,21,966,381,2247,8332,412,-5389,-44,
684,7,27,2023,13,13,21,976,45,2326,9046,487,-7139,449,
685,7,27,2023,13,13,21,986,1995,1340,7380,580,-9618,1371,
686,7,27,2023,13,13,21,996,1734,1728,6373,753,-12295,2630,
687,7,27,2023,13,13,22,6,-1311,2528,6320,558,-13562,3314,
688,7,27,2023,13,13,22,16,-827,993,6330,-378,-14808,3849,
689,7,27,2023,13,13,22,26,1138,-680,6138,-109,-16857,3852,
690,7,27,2023,13,13,22,36,5272,-1419,3363,1038,-18795,3743,
691,7,27,2023,13,13,22,46,10274,62,4805,2003,-19489,3195,
692,7,27,2023,13,13,22,56,8102,230,4654,2799,-17365,2292,
693,7,27,2023,13,13,22,66,7808,334,3485,4065,-15318,2104,
694,7,27,2023,13,13,22,76,10236,1589,1081,5214,-13669,2705,
695,7,27,2023,13,13,22,86,7337,1513,-1768,5404,-12655,4326,
696,7,27,2023,13,13,22,96,5552,942,-4760,5747,-13196,6131,
697,7,27,2023,13,13,22,106,15011,3387,-3293,5565,-12982,7068,
698,7,27,2023,13,13,22,116,12595,4222,1149,4065,-8508,6045,
699,7,27,2023,13,13,22,126,7880,4223,3195,2019,-5313,4700,
700,7,27,2023,13,13,22,136,6600,3777,4743,-201,-5177,3978,
701,7,27,2023,13,13,22,146,5468,1858,5744,-1739,-6095,3842,
702,7,27,2023,13,13,22,156,5388,806,6334,-1981,-7728,3970,
703,7,27,2023,13,13,22,166,5998,1094,6876,-1106,-9612,4199,
704,7,27,2023,13,13,22,176,7011,1953,7100,48,-11424,4559,
705,7,27,2023,13,13,22,186,7789,2878,7264,1064,-12739,5331,
706,7,27,2023,13,13,22,196,8848,3481,7238,1676,-13483,6376,
707,7,27,2023,13,13,22,206,10311,3671,7491,1823,-13306,7256,
708,7,27,2023,13,13,22,216,12142,3734,7825,1820,-11937,7675,
709,7,27,2023,13,13,22,226,13447,4093,8329,1787,-9391,7568,
710,7,27,2023,13,13,22,236,12919,5123,8813,1500,-6172,7069,
711,7,27,2023,13,13,22,246,10462,6387,9096,308,-2972,6582,
712,7,27,2023,13,13,22,256,7825,7000,8744,-1791,-311,6149,
713,7,27,2023,13,13,22,266,5656,6078,7745,-4180,1928,5602,
714,7,27,2023,13,13,22,276,3342,5089,6864,-6002,4012,4763,
715,7,27,2023,13,13,22,286,1335,4507,5709,-6971,5871,3897,
716,7,27,2023,13,13,22,296,-395,4202,4131,-7381,7744,3051,
717,7,27,2023,13,13,22,306,-1535,3932,2800,-7508,9806,2254,
718,7,27,2023,13,13,22,316,-1936,2455,2044,-6675,11882,1763,
719,7,27,2023,13,13,22,326,-2078,1264,1323,-4281,13704,1168,
720,7,27,2023,13,13,22,336,-1847,1620,908,-992,15321,441,
721,7,27,2023,13,13,22,346,-1110,2622,720,2014,16614,-244,
722,7,27,2023,13,13,22,356,158,3512,650,4049,17632,-1067,
723,7,27,2023,13,13,22,366,1201,3715,1019,5046,18423,-2024,
724,7,27,2023,13,13,22,376,2235,3264,1553,5524,18804,-3060,
725,7,27,2023,13,13,22,386,2988,2584,2014,5955,18831,-4072,
726,7,27,2023,13,13,22,396,3392,2098,2438,6676,18565,-4937,
727,7,27,2023,13,13,22,406,3858,2082,3100,7415,18111,-5811,
728,7,27,2023,13,13,22,416,4559,2325,3842,7564,17577,-6706,
729,7,27,2023,13,13,22,426,5047,2281,4166,7230,17254,-7469,
730,7,27,2023,13,13,22,436,5151,1730,4544,6887,17226,-8072,
731,7,27,2023,13,13,22,446,5377,1185,5010,6810,17256,-8614,
732,7,27,2023,13,13,22,456,5349,1134,5553,6957,17304,-9148,
733,7,27,2023,13,13,22,466,6006,72,6163,7167,17164,-9611,
734,7,27,2023,13,13,22,476,7413,-506,6673,7645,16859,-10209,
735,7,27,2023,13,13,22,486,9785,494,7034,8242,16402,-10713,
736,7,27,2023,13,13,22,496,12917,2142,7257,8006,16232,-11074,
737,7,27,2023,13,13,22,506,16399,3016,7130,6199,16340,-11511,
738,7,27,2023,13,13,22,516,19573,2088,6535,3797,16286,-11736,
739,7,27,2023,13,13,22,526,20767,-2000,5202,2586,15219,-11515,
740,7,27,2023,13,13,22,536,21203,-6240,2073,4121,12600,-10895,
741,7,27,2023,13,13,22,546,21854,-5138,-1450,7539,9341,-9521,
742,7,27,2023,13,13,22,556,21869,-3602,-4935,8345,6272,-7036,
743,7,27,2023,13,13,22,566,20163,-5812,-6826,5689,4065,-3646,
744,7,27,2023,13,13,22,576,18990,-7241,-6593,3246,2665,-405,
745,7,27,2023,13,13,22,586,17437,-6000,-6128,2326,1660,2024,
746,7,27,2023,13,13,22,596,13705,-3786,-4710,1390,124,3385,
747,7,27,2023,13,13,22,606,12752,153,-6062,-1045,-3177,4236,
748,7,27,2023,13,13,22,616,9156,11212,-8699,-6360,-10522,8612,
749,7,27,2023,13,13,22,626,14871,1550,8446,-11992,-16026,15091,
750,7,27,2023,13,13,22,636,28993,10788,13299,-7056,-16196,10622,
751,7,27,2023,13,13,22,646,9397,-2126,7370,-5310,-13713,4734,
752,7,27,2023,13,13,22,656,12855,-1170,16586,-5935,-12704,6975,
753,7,27,2023,13,13,22,666,8344,722,8774,-7133,-4678,6311,
754,7,27,2023,13,13,22,676,-671,-3714,3992,-3489,-1530,2250,
755,7,27,2023,13,13,22,686,6664,-6342,-454,-2144,-1114,2414,
756,7,27,2023,13,13,22,696,7172,-1269,-330,-1380,-1511,2035,
757,7,27,2023,13,13,22,706,2816,4846,6112,-776,-546,926,
758,7,27,2023,13,13,22,716,564,3743,9654,-1142,147,1078,
759,7,27,2023,13,13,22,726,1434,1330,7155,-1282,-996,1658,
760,7,27,2023,13,13,22,736,6716,-3240,2673,-1073,-2358,1772,
761,7,27,2023,13,13,22,746,3964,-1998,3406,-222,-2915,1052,
762,7,27,2023,13,13,22,756,1205,-60,6163,435,-2813,17,
763,7,27,2023,13,13,22,766,1819,2208,8089,687,-3242,-223,
764,7,27,2023,13,13,22,776,1816,2046,8185,591,-4922,292,
765,7,27,2023,13,13,22,786,3072,1238,7777,786,-7821,1069,
766,7,27,2023,13,13,22,806,-1618,1673,7160,523,-11679,2347,
767,7,27,2023,13,13,22,816,-1273,1257,6808,117,-13463,3035,
768,7,27,2023,13,13,22,826,1944,-682,4711,-128,-15895,3347,
769,7,27,2023,13,13,22,836,4608,742,4739,673,-18651,3744,
770,7,27,2023,13,13,22,846,6223,2325,5950,1439,-19252,3178,
771,7,27,2023,13,13,22,856,7577,1121,5231,1810,-17814,2872,
772,7,27,2023,13,13,22,866,9051,983,3647,3090,-16003,2767,
773,7,27,2023,13,13,22,876,8490,1599,1569,4495,-14171,3168,
774,7,27,2023,13,13,22,886,9170,2820,240,5223,-12658,4040,
775,7,27,2023,13,13,22,896,3774,1507,-2047,5418,-11744,5382,
776,7,27,2023,13,13,22,906,7061,1825,-4049,5780,-12516,6635,
777,7,27,2023,13,13,22,916,13503,3092,-188,5314,-10635,6473,
778,7,27,2023,13,13,22,926,8384,3001,2076,4298,-6189,5275,
779,7,27,2023,13,13,22,936,6326,3710,3233,3142,-4345,4298,
780,7,27,2023,13,13,22,946,5818,3843,4566,1538,-4197,4079,
781,7,27,2023,13,13,22,956,5305,3059,5259,-107,-4802,4386,
782,7,27,2023,13,13,22,966,5435,3132,5803,-1014,-5930,4935,
783,7,27,2023,13,13,22,976,5863,3320,6508,-1402,-7206,5669,
784,7,27,2023,13,13,22,986,6219,2925,7023,-1449,-8469,6447,
785,7,27,2023,13,13,22,996,6772,2196,7234,-835,-9489,7142,
786,7,27,2023,13,13,23,6,7257,2281,7475,371,-10023,7650,
787,7,27,2023,13,13,23,16,8443,2572,7627,1562,-10019,7901,
788,7,27,2023,13,13,23,26,9888,3089,7782,2447,-9248,7869,
789,7,27,2023,13,13,23,36,10975,3839,8171,2891,-7794,7583,
790,7,27,2023,13,13,23,46,10940,5519,8270,2520,-5823,7027,
791,7,27,2023,13,13,23,56,9456,7075,7991,669,-3415,6391,
792,7,27,2023,13,13,23,66,7125,7192,7272,-2341,-1019,5608,
793,7,27,2023,13,13,23,76,4935,6074,6415,-5308,1022,4817,
794,7,27,2023,13,13,23,86,3503,4837,5635,-7389,2704,4012,
795,7,27,2023,13,13,23,96,1683,4173,4706,-8376,4389,3085,
796,7,27,2023,13,13,23,106,600,3291,3514,-8563,6067,2248,
797,7,27,2023,13,13,23,116,314,2504,2697,-7922,8057,1507,
798,7,27,2023,13,13,23,126,-92,1742,2493,-6173,10312,816,
799,7,27,2023,13,13,23,136,-582,1995,2010,-3656,12240,-5,
800,7,27,2023,13,13,23,146,-801,2831,1444,-1116,13864,-592,
801,7,27,2023,13,13,23,156,-255,3285,1324,1024,15266,-986,
802,7,27,2023,13,13,23,166,970,3345,1463,2735,16366,-1520,
803,7,27,2023,13,13,23,176,1906,3256,1556,4113,17227,-2271,
804,7,27,2023,13,13,23,186,2755,3249,1746,5235,17923,-3148,
805,7,27,2023,13,13,23,196,3195,3290,2129,6012,18390,-4079,
806,7,27,2023,13,13,23,206,3465,3104,2451,6458,18388,-4978,
807,7,27,2023,13,13,23,216,3686,2506,2858,6761,18073,-5813,
808,7,27,2023,13,13,23,226,4040,1938,3364,7125,17571,-6679,
809,7,27,2023,13,13,23,236,4437,1851,3948,7404,16948,-7568,
810,7,27,2023,13,13,23,246,5116,1915,4408,7636,16418,-8413,
811,7,27,2023,13,13,23,256,5435,2106,4824,7578,16244,-9303,
812,7,27,2023,13,13,23,266,5484,2254,5455,7178,16243,-10063,
813,7,27,2023,13,13,23,276,6762,2418,6132,6787,16276,-10586,
814,7,27,2023,13,13,23,286,8111,470,6600,6627,16252,-11020,
815,7,27,2023,13,13,23,296,9646,916,6883,7003,16000,-11698,
816,7,27,2023,13,13,23,306,12255,2825,6833,6937,15763,-12233,
817,7,27,2023,13,13,23,316,15043,3661,6116,5365,15564,-12627,
818,7,27,2023,13,13,23,326,17934,2464,5465,2826,15348,-12835,
819,7,27,2023,13,13,23,336,19758,-1399,4366,1598,14433,-12646,
820,7,27,2023,13,13,23,346,20079,-6411,1834,3512,12153,-11946,
821,7,27,2023,13,13,23,356,20474,-7200,-1750,8033,8796,-10627,
822,7,27,2023,13,13,23,366,22605,-5217,-4960,10825,5433,-8224,
823,7,27,2023,13,13,23,376,22641,-5560,-6495,9425,3599,-4753,
824,7,27,2023,13,13,23,386,20596,-5636,-5955,5951,3197,-960,
825,7,27,2023,13,13,23,396,16592,-4489,-5431,2223,2644,2279,
826,7,27,2023,13,13,23,406,16537,-2877,-7469,-2132,20,5376,
827,7,27,2023,13,13,23,416,17893,3772,-14179,-8106,-7289,11121,
828,7,27,2023,13,13,23,426,12903,-1387,3439,-14439,-15127,19760,
829,7,27,2023,13,13,23,436,30624,16136,13969,-8893,-17895,14994,
830,7,27,2023,13,13,23,446,10970,2418,5877,-6994,-15922,5371,
831,7,27,2023,13,13,23,456,18955,-8419,21180,-7437,-13656,5491,
832,7,27,2023,13,13,23,466,5820,-1319,8784,-7486,-2786,6091,
833,7,27,2023,13,13,23,476,422,-919,861,-3665,447,2879,
834,7,27,2023,13,13,23,486,7715,-6430,-1250,-3051,-260,2652,
835,7,27,2023,13,13,23,496,3077,-1926,-58,-2320,-181,2368,
836,7,27,2023,13,13,23,506,2871,3707,5125,-1412,978,928,
837,7,27,2023,13,13,23,516,602,4434,10133,-1591,1945,1019,
838,7,27,2023,13,13,23,526,3575,-78,8339,-1575,479,1589,
839,7,27,2023,13,13,23,536,5008,-2680,4162,-1265,-1887,1845,
840,7,27,2023,13,13,23,546,1877,-1950,3875,-495,-2510,932,
841,7,27,2023,13,13,23,556,1421,52,5443,27,-2389,148,
842,7,27,2023,13,13,23,566,2286,1290,7289,13,-3200,38,
843,7,27,2023,13,13,23,576,4190,817,7457,183,-4890,249,
844,7,27,2023,13,13,23,586,1217,1567,8363,502,-7597,797,
845,7,27,2023,13,13,23,596,430,1667,8536,581,-9816,1051,
846,7,27,2023,13,13,23,606,91,2459,7626,707,-11320,1906,
847,7,27,2023,13,13,23,616,-1188,2275,6612,550,-12658,2908,
848,7,27,2023,13,13,23,626,1643,1023,4802,-126,-14882,4008,
849,7,27,2023,13,13,23,636,688,-402,6203,-593,-17538,4423,
850,7,27,2023,13,13,23,646,2450,-130,6872,661,-18877,3914,
851,7,27,2023,13,13,23,666,9386,-646,3212,2452,-18156,2690,
852,7,27,2023,13,13,23,676,10991,174,2172,3832,-16904,2691,
853,7,27,2023,13,13,23,686,13145,2847,887,5026,-14266,2793,
854,7,27,2023,13,13,23,696,7692,3208,-2018,4659,-11962,4244,
855,7,27,2023,13,13,23,706,5588,1934,-5382,3897,-13006,6264,
856,7,27,2023,13,13,23,716,15665,3403,-3547,3868,-14009,6843,
857,7,27,2023,13,13,23,726,13096,3636,1221,2898,-10297,5626,
858,7,27,2023,13,13,23,736,8492,3741,3065,1535,-7669,3847,
859,7,27,2023,13,13,23,746,7879,3507,4849,113,-7894,2874,
860,7,27,2023,13,13,23,756,7146,1671,6149,-958,-8989,2781,
861,7,27,2023,13,13,23,766,7415,1095,6888,-869,-10780,3078,
862,7,27,2023,13,13,23,776,8429,1952,7533,-74,-12661,3770,
863,7,27,2023,13,13,23,786,9324,2465,7898,778,-14027,4891,
864,7,27,2023,13,13,23,796,9927,3126,7956,1885,-14673,6509,
865,7,27,2023,13,13,23,806,10798,3548,7967,2903,-14462,8170,
866,7,27,2023,13,13,23,816,11857,3434,8376,3474,-13224,9308,
867,7,27,2023,13,13,23,826,13545,3646,8434,4029,-10812,9677,
868,7,27,2023,13,13,23,836,13676,4717,8737,4437,-7197,9294,
869,7,27,2023,13,13,23,846,11366,6518,9222,3774,-3423,8589,
870,7,27,2023,13,13,23,856,8423,8302,9146,1619,-328,7908,
871,7,27,2023,13,13,23,866,5396,8676,8459,-1548,2056,7186,
872,7,27,2023,13,13,23,876,3199,7485,7498,-4908,3914,6322,
873,7,27,2023,13,13,23,886,949,6601,6753,-7414,5738,5121,
874,7,27,2023,13,13,23,896,-757,5471,5328,-8930,7538,3935,
875,7,27,2023,13,13,23,906,-2030,4127,3669,-9238,9456,2997,
876,7,27,2023,13,13,23,916,-2484,2857,2385,-8085,11523,2280,
877,7,27,2023,13,13,23,926,-3052,1453,1770,-5311,13511,1542,
878,7,27,2023,13,13,23,936,-2918,1827,1184,-1435,14895,580,
879,7,27,2023,13,13,23,946,-1867,3326,687,1950,16102,-401,
880,7,27,2023,13,13,23,956,-650,4392,524,3946,17259,-1504,
881,7,27,2023,13,13,23,966,680,4481,736,4770,18020,-2830,
882,7,27,2023,13,13,23,976,1827,4109,1144,4970,18448,-4326,
883,7,27,2023,13,13,23,986,2522,3544,1848,4985,18580,-5826,
884,7,27,2023,13,13,23,996,3371,2940,2638,5112,18314,-7216,
885,7,27,2023,13,13,24,6,3842,2620,3319,5270,17992,-8470,
886,7,27,2023,13,13,24,16,4091,2331,3995,5390,17593,-9427,
887,7,27,2023,13,13,24,26,4743,1929,4684,5452,17173,-9996,
888,7,27,2023,13,13,24,36,5168,1618,5246,5544,16919,-10217,
889,7,27,2023,13,13,24,46,5741,1167,5655,5770,16911,-10165,
890,7,27,2023,13,13,24,56,6257,1273,6056,6084,17248,-9931,
891,7,27,2023,13,13,24,66,6328,1014,6273,6288,17828,-9485,
892,7,27,2023,13,13,24,76,6417,122,6509,6390,18179,-9065,
893,7,27,2023,13,13,24,86,7637,916,6952,6508,18032,-8754,
894,7,27,2023,13,13,24,96,9470,1823,7108,6138,17535,-8512,
895,7,27,2023,13,13,24,106,12746,2148,7270,5070,17257,-8552,
896,7,27,2023,13,13,24,116,16869,2246,6806,3728,17264,-9134,
897,7,27,2023,13,13,24,126,21079,1934,5782,2662,17214,-9777,
898,7,27,2023,13,13,24,136,23285,-250,3871,2604,16355,-9937,
899,7,27,2023,13,13,24,146,23122,-3051,226,4243,13799,-9587,
900,7,27,2023,13,13,24,156,22039,-4220,-3850,6749,9975,-8468,
901,7,27,2023,13,13,24,166,20757,-5572,-6530,8021,5796,-6425,
902,7,27,2023,13,13,24,176,20305,-6212,-7406,7690,2589,-3795,
903,7,27,2023,13,13,24,186,19449,-3826,-6764,6090,1081,-1000,
904,7,27,2023,13,13,24,196,16036,-2374,-5296,2860,154,1570,
905,7,27,2023,13,13,24,206,16559,-825,-8377,-1753,-2583,4045,
906,7,27,2023,13,13,24,216,11303,6793,-11788,-8851,-10365,9813,
907,7,27,2023,13,13,24,226,19535,-2186,9427,-12956,-17497,16968,
908,7,27,2023,13,13,24,236,29350,11128,13069,-7123,-17632,10742,
909,7,27,2023,13,13,24,246,9384,-2497,9680,-6114,-15724,5372,
910,7,27,2023,13,13,24,256,15526,-961,20941,-7026,-12166,6480,
911,7,27,2023,13,13,24,266,4529,1591,5926,-6640,-2776,5308,
912,7,27,2023,13,13,24,276,2673,-4758,799,-3322,-1237,2299,
913,7,27,2023,13,13,24,286,8085,-7292,-1979,-2911,-1013,2866,
914,7,27,2023,13,13,24,296,1506,793,955,-1681,-900,1721,
915,7,27,2023,13,13,24,306,2946,5052,7248,-1310,475,808,
916,7,27,2023,13,13,24,316,2565,2963,10197,-1515,820,1075,
917,7,27,2023,13,13,24,326,5501,-909,6926,-1492,-827,1683,
918,7,27,2023,13,13,24,336,2958,-2368,4251,-949,-2357,1523,
919,7,27,2023,13,13,24,346,1140,-1713,5019,-212,-2805,699,
920,7,27,2023,13,13,24,356,1715,-263,6785,306,-3472,57,
921,7,27,2023,13,13,24,366,2763,1119,7532,652,-4914,-81,
922,7,27,2023,13,13,24,376,3853,1579,8285,889,-7152,428,
923,7,27,2023,13,13,24,386,860,2286,8856,905,-9593,1060,
924,7,27,2023,13,13,24,396,-653,2694,7710,902,-11112,1970,
925,7,27,2023,13,13,24,406,-2130,2392,7003,686,-12716,3038,
926,7,27,2023,13,13,24,416,717,581,4884,1,-14922,3687,
927,7,27,2023,13,13,24,426,2332,-1199,5497,-57,-17847,4190,
928,7,27,2023,13,13,24,436,4299,254,5838,1232,-19427,3689,
929,7,27,2023,13,13,24,446,7673,679,5421,2083,-19167,2946,
930,7,27,2023,13,13,24,456,8007,161,4220,2935,-17591,2303,
931,7,27,2023,13,13,24,466,8421,-75,1803,4462,-16194,2144,
932,7,27,2023,13,13,24,476,12221,1760,1122,5945,-14588,2665,
933,7,27,2023,13,13,24,486,8228,2818,-1256,6571,-12029,3932,
934,7,27,2023,13,13,24,496,4329,1775,-4694,6294,-12195,5903,
935,7,27,2023,13,13,24,506,13492,4416,-3365,5966,-12839,6887,
936,7,27,2023,13,13,24,526,6825,3711,2816,1916,-5989,4358,
937,7,27,2023,13,13,24,536,5873,3440,4241,202,-5549,3342,
938,7,27,2023,13,13,24,546,5155,1783,5479,-1073,-6007,3070,
939,7,27,2023,13,13,24,556,5404,979,6166,-1359,-7170,3135,
940,7,27,2023,13,13,24,566,6259,1939,6697,-773,-8543,3429,
941,7,27,2023,13,13,24,576,6619,2894,7152,-164,-9730,4134,
942,7,27,2023,13,13,24,586,7081,2617,7231,416,-10699,5262,
943,7,27,2023,13,13,24,596,7333,2486,7399,1339,-11230,6453,
944,7,27,2023,13,13,24,606,7946,2519,7425,2264,-11339,7420,
945,7,27,2023,13,13,24,616,8955,2795,7716,3004,-10880,8050,
946,7,27,2023,13,13,24,626,10454,3288,8003,3558,-9680,8290,
947,7,27,2023,13,13,24,636,11566,4215,8106,3778,-7539,8027,
948,7,27,2023,13,13,24,646,11176,5685,8146,3264,-4551,7403,
949,7,27,2023,13,13,24,656,8762,7206,7937,1503,-1146,6477,
950,7,27,2023,13,13,24,666,5550,7881,7274,-1493,1857,5380,
951,7,27,2023,13,13,24,676,3304,6960,6186,-4803,4028,4518,
952,7,27,2023,13,13,24,686,1845,5858,5266,-7112,5633,3787,
953,7,27,2023,13,13,24,696,532,4650,3941,-8295,7144,3053,
954,7,27,2023,13,13,24,706,-146,4152,2254,-8678,8814,2256,
955,7,27,2023,13,13,24,716,-262,3432,1319,-8258,10824,1685,
956,7,27,2023,13,13,24,726,-806,1555,1116,-6452,12792,1230,
957,7,27,2023,13,13,24,736,-1000,1114,860,-3182,14196,228,
958,7,27,2023,13,13,24,746,-641,2086,508,476,15132,-865,
959,7,27,2023,13,13,24,756,288,3098,352,3305,15803,-1928,
960,7,27,2023,13,13,24,766,1156,3830,453,4883,16368,-3106,
961,7,27,2023,13,13,24,776,1906,3807,907,5447,16741,-4186,
962,7,27,2023,13,13,24,786,2826,3134,1450,5650,16973,-5132,
963,7,27,2023,13,13,24,796,3259,2399,2084,5991,17101,-5997,
964,7,27,2023,13,13,24,806,3604,1721,2789,6527,16968,-6800,
965,7,27,2023,13,13,24,816,3993,1264,3532,7137,16670,-7566,
966,7,27,2023,13,13,24,826,4602,959,4169,7678,16403,-8172,
967,7,27,2023,13,13,24,836,5162,987,4535,8123,16385,-8587,
968,7,27,2023,13,13,24,846,5247,1476,4922,8228,16547,-8893,
969,7,27,2023,13,13,24,856,5293,1733,5442,7776,16779,-8981,
970,7,27,2023,13,13,24,866,5087,540,6146,7071,16881,-9065,
971,7,27,2023,13,13,24,876,5289,195,7174,6630,16642,-9343,
972,7,27,2023,13,13,24,886,6943,-182,8004,6535,16127,-9561,
973,7,27,2023,13,13,24,896,9570,215,8508,6778,15713,-9888,
974,7,27,2023,13,13,24,906,12611,1366,8608,6563,15529,-10623,
975,7,27,2023,13,13,24,916,16556,2090,7738,5058,15616,-11755,
976,7,27,2023,13,13,24,926,20326,2068,5815,2861,15718,-12721,
977,7,27,2023,13,13,24,936,21710,78,3173,1232,14923,-12698,
978,7,27,2023,13,13,24,946,21293,-3229,-527,1598,12544,-11525,
979,7,27,2023,13,13,24,956,21590,-5024,-4546,3872,9341,-9524,
980,7,27,2023,13,13,24,966,20218,-6873,-7392,6089,5985,-6936,
981,7,27,2023,13,13,24,976,18818,-6758,-7984,6716,3045,-4471,
982,7,27,2023,13,13,24,986,18068,-3629,-7431,4718,941,-2303,
983,7,27,2023,13,13,24,996,16568,-2949,-6008,834,-634,-114,
984,7,27,2023,13,13,25,6,21525,-1595,-10152,-2881,-3867,3074,
985,7,27,2023,13,13,25,16,8418,6263,-10555,-8801,-11100,10577,
986,7,27,2023,13,13,25,26,21417,-1911,13002,-11255,-17757,17469,
987,7,27,2023,13,13,25,36,27199,12876,12618,-5605,-16241,9394,
988,7,27,2023,13,13,25,46,5110,-1535,7536,-4659,-14631,4590,
989,7,27,2023,13,13,25,56,12396,2449,16245,-5709,-13113,7250,
990,7,27,2023,13,13,25,66,8690,1427,5473,-7708,-4026,6324,
991,7,27,2023,13,13,25,76,1442,-6229,1014,-4343,-935,2904,
992,7,27,2023,13,13,25,86,9368,-8497,-1024,-3252,-615,3229,
993,7,27,2023,13,13,25,96,2359,1201,2182,-1662,-516,1642,
994,7,27,2023,13,13,25,106,2666,6219,8227,-1535,856,964,
995,7,27,2023,13,13,25,116,1314,2142,10355,-1925,820,1460,
996,7,27,2023,13,13,25,126,5578,-1709,5889,-1638,-987,1877,
997,7,27,2023,13,13,25,136,3981,-2304,3732,-1112,-2511,1673,
998,7,27,2023,13,13,25,146,1330,-302,4797,-299,-2543,811,
999,7,27,2023,13,13,25,156,2119,1302,6476,-85,-2746,274,
1000,7,27,2023,13,13,25,166,2214,1483,7988,-3,-3902,333,
1001,7,27,2023,13,13,25,176,3651,1151,7863,190,-6078,960,
1002,7,27,2023,13,13,25,186,785,1968,8424,220,-8812,1531,
1003,7,27,2023,13,13,25,196,-91,2154,7494,281,-10582,2041,
1004,7,27,2023,13,13,25,206,-863,2841,6440,405,-11865,2860,
1005,7,27,2023,13,13,25,216,244,1430,4720,-417,-13431,3646,
1006,7,27,2023,13,13,25,226,2528,-12,4790,-1064,-16109,4427,
1007,7,27,2023,13,13,25,236,3665,810,5650,-186,-17927,4264,
1008,7,27,2023,13,13,25,246,6055,1246,5494,996,-18081,3856,
1009,7,27,2023,13,13,25,256,7658,-145,4569,2249,-17163,3236,
1010,7,27,2023,13,13,25,266,7888,-60,1982,4359,-16024,3109,
1011,7,27,2023,13,13,25,276,11098,909,1340,6286,-14936,3712,
1012,7,27,2023,13,13,25,286,8823,3071,-496,7489,-12624,4381,
1013,7,27,2023,13,13,25,296,3090,3311,-2994,6429,-12835,6056,
1014,7,27,2023,13,13,25,306,10399,3470,-3612,5134,-14757,6407,
1015,7,27,2023,13,13,25,316,13301,3234,1024,3554,-12708,4897,
1016,7,27,2023,13,13,25,326,8015,3559,2401,2007,-9000,3008,
1017,7,27,2023,13,13,25,336,7048,4759,3706,555,-7620,1783,
1018,7,27,2023,13,13,25,346,6444,3537,4975,-1468,-7263,1706,
1019,7,27,2023,13,13,25,356,6646,2665,5964,-2655,-7697,2063,
1020,7,27,2023,13,13,25,366,7113,3002,6801,-2879,-8631,2581,
1021,7,27,2023,13,13,25,386,6997,2181,7808,-2285,-10827,4687,
1022,7,27,2023,13,13,25,396,7197,1410,7843,-1072,-11643,5906,
1023,7,27,2023,13,13,25,406,7676,1163,7916,574,-11898,6839,
1024,7,27,2023,13,13,25,416,9059,1409,8255,2234,-11404,7461,
1025,7,27,2023,13,13,25,426,11027,2510,8560,3662,-9826,7652,
1026,7,27,2023,13,13,25,436,12015,4047,8542,4406,-7048,7435,
1027,7,27,2023,13,13,25,446,10756,5669,8580,3860,-3553,6952,
1028,7,27,2023,13,13,25,456,8235,7275,8428,1784,-67,6270,
1029,7,27,2023,13,13,25,466,5138,7200,7563,-1503,2805,5444,
1030,7,27,2023,13,13,25,476,2811,5923,6448,-4599,4831,4631,
1031,7,27,2023,13,13,25,486,1407,4448,5633,-6686,6336,3855,
1032,7,27,2023,13,13,25,496,-5,3150,4314,-7571,7737,2966,
1033,7,27,2023,13,13,25,506,-895,2558,2811,-7447,9352,2034,
1034,7,27,2023,13,13,25,516,-1341,1578,1878,-6427,11140,1386,
1035,7,27,2023,13,13,25,526,-1648,238,1540,-4187,12734,851,
1036,7,27,2023,13,13,25,536,-1553,562,1134,-1024,13850,102,
1037,7,27,2023,13,13,25,546,-515,1610,1054,1973,14924,-537,
1038,7,27,2023,13,13,25,556,882,2554,1125,4142,16011,-1311,
1039,7,27,2023,13,13,25,566,1961,3236,1256,5229,17126,-2337,
1040,7,27,2023,13,13,25,576,2620,3244,1817,5508,18136,-3471,
1041,7,27,2023,13,13,25,586,3514,2673,2289,5556,18698,-4643,
1042,7,27,2023,13,13,25,596,3815,2174,2421,5755,18879,-5706,
1043,7,27,2023,13,13,25,606,3539,1908,2960,6213,18666,-6645,
1044,7,27,2023,13,13,25,616,3829,1709,3616,6500,18015,-7575,
1045,7,27,2023,13,13,25,626,4179,1671,4057,6458,17324,-8356,
1046,7,27,2023,13,13,25,636,4737,1607,4570,6358,16785,-8944,
1047,7,27,2023,13,13,25,646,5117,1493,5263,6305,16600,-9495,
1048,7,27,2023,13,13,25,656,5211,1270,6144,6287,16486,-9996,
1049,7,27,2023,13,13,25,666,6605,1776,6987,6472,16460,-10341,
1050,7,27,2023,13,13,25,676,8729,1944,7823,6716,16810,-10547,
1051,7,27,2023,13,13,25,686,10224,1208,8130,6751,17179,-10914,
1052,7,27,2023,13,13,25,696,12425,2169,8138,6672,17308,-11345,
1053,7,27,2023,13,13,25,706,15338,2464,6857,5824,16964,-11646,
1054,7,27,2023,13,13,25,716,17983,1560,5528,4238,16358,-11694,
1055,7,27,2023,13,13,25,726,20017,-1610,4356,3189,14922,-11260,
1056,7,27,2023,13,13,25,736,21222,-5647,1983,4399,12453,-10315,
1057,7,27,2023,13,13,25,746,21618,-5496,-1689,7194,9702,-8755,
1058,7,27,2023,13,13,25,756,22049,-4526,-5879,7788,6936,-6052,
1059,7,27,2023,13,13,25,766,20558,-6392,-8140,5072,4201,-2517,
1060,7,27,2023,13,13,25,776,19609,-6674,-7252,2332,1723,530,
1061,7,27,2023,13,13,25,786,17486,-3970,-6377,348,-238,2022,
1062,7,27,2023,13,13,25,796,18715,-3502,-9481,-2133,-3716,3578,
1063,7,27,2023,13,13,25,806,13887,7635,-12106,-5949,-11489,8548,
1064,7,27,2023,13,13,25,816,16530,181,7698,-11340,-18052,16403,
1065,7,27,2023,13,13,25,826,29354,13050,15429,-6361,-17822,12004,
1066,7,27,2023,13,13,25,836,9340,337,7367,-5344,-13997,5533,
1067,7,27,2023,13,13,25,846,15293,-1725,16291,-5972,-12405,6641,
1068,7,27,2023,13,13,25,856,8540,3118,6071,-7372,-4515,6578,
1069,7,27,2023,13,13,25,866,-1823,-2275,1248,-5414,-86,4049,
1070,7,27,2023,13,13,25,876,4138,-6372,-61,-4142,397,3430,
1071,7,27,2023,13,13,25,886,8367,-4452,-698,-2817,-6,2457,
1072,7,27,2023,13,13,25,896,4327,3232,5620,-1494,479,1091,
1073,7,27,2023,13,13,25,906,409,3980,10625,-1396,1402,781,
1074,7,27,2023,13,13,25,916,281,1657,9182,-1506,203,1480,
1075,7,27,2023,13,13,25,926,5324,-2469,4824,-1351,-1661,1697,
1076,7,27,2023,13,13,25,936,4439,-2667,3456,-769,-3050,1390,
1077,7,27,2023,13,13,25,946,1460,-284,5369,-115,-3513,418,
1078,7,27,2023,13,13,25,956,1465,1005,6984,-149,-4157,43,
1079,7,27,2023,13,13,25,966,1620,1967,7900,-75,-5517,251,
1080,7,27,2023,13,13,25,976,4196,1182,7309,-62,-7813,835,
1081,7,27,2023,13,13,25,986,1141,1899,7749,7,-10563,1646,
1082,7,27,2023,13,13,25,996,197,2094,6918,302,-11795,2188,
1083,7,27,2023,13,13,26,6,-1504,2737,6866,260,-12569,3290,
1084,7,27,2023,13,13,26,16,560,81,5499,-832,-14410,4134,
1085,7,27,2023,13,13,26,26,3984,-895,4921,-883,-17303,4666,
1086,7,27,2023,13,13,26,36,4702,-152,5857,132,-18802,4269,
1087,7,27,2023,13,13,26,46,6581,854,5431,719,-18224,3307,
1088,7,27,2023,13,13,26,56,7222,598,4722,1176,-16909,2562,
1089,7,27,2023,13,13,26,66,6951,250,2817,2382,-15822,2660,
1090,7,27,2023,13,13,26,76,10256,1754,1616,3585,-15098,3348,
1091,7,27,2023,13,13,26,86,6861,3167,-127,3923,-13910,4150,
1092,7,27,2023,13,13,26,96,4055,1807,-2591,3360,-14871,5382,
1093,7,27,2023,13,13,26,106,12933,1305,-1920,3148,-15613,5224,
1094,7,27,2023,13,13,26,116,12456,2012,1793,3308,-11625,3427,
1095,7,27,2023,13,13,26,126,8555,4538,3419,3113,-7681,2043,
1096,7,27,2023,13,13,26,136,7313,4915,4775,1081,-6359,1823,
1097,7,27,2023,13,13,26,146,6374,3379,5733,-1150,-6220,2084,
1098,7,27,2023,13,13,26,156,6892,2839,6668,-2319,-6980,2549,
1099,7,27,2023,13,13,26,166,7257,2581,7330,-2492,-8063,3154,
1100,7,27,2023,13,13,26,176,7246,2345,7766,-1770,-9229,3954,
1101,7,27,2023,13,13,26,186,7097,1992,7893,-588,-10234,4969,
1102,7,27,2023,13,13,26,196,7294,1727,7988,828,-10817,5924,
1103,7,27,2023,13,13,26,206,8422,1492,8157,2351,-10817,6671,
1104,7,27,2023,13,13,26,216,10318,1731,8440,3892,-9945,7079,
1105,7,27,2023,13,13,26,226,11834,3217,8580,5003,-7995,7090,
1106,7,27,2023,13,13,26,246,8776,6853,8612,2972,-1937,6377,
1107,7,27,2023,13,13,26,256,6134,7130,7828,69,900,5587,
1108,7,27,2023,13,13,26,266,4235,6181,6851,-2956,3282,4741,
1109,7,27,2023,13,13,26,276,2765,5258,5743,-5218,5431,3792,
1110,7,27,2023,13,13,26,286,1083,4817,4494,-6397,7571,2819,
1111,7,27,2023,13,13,26,296,-256,4247,2921,-7056,9655,1949,
1112,7,27,2023,13,13,26,306,-697,3300,1905,-7005,11715,1344,
1113,7,27,2023,13,13,26,316,-715,1558,1544,-5493,13574,889,
1114,7,27,2023,13,13,26,326,-740,524,1280,-2528,15015,26,
1115,7,27,2023,13,13,26,336,-319,1408,1035,988,16085,-1070,
1116,7,27,2023,13,13,26,346,522,2747,1049,3884,16890,-2055,
1117,7,27,2023,13,13,26,356,1554,3474,1277,5390,17532,-3159,
1118,7,27,2023,13,13,26,366,2583,3546,1686,5815,17947,-4326,
1119,7,27,2023,13,13,26,376,3527,3150,2001,5889,18133,-5351,
1120,7,27,2023,13,13,26,386,4082,2814,2470,6106,18175,-6246,
1121,7,27,2023,13,13,26,396,4603,2398,3222,6456,17920,-7148,
1122,7,27,2023,13,13,26,406,4901,1826,3893,6699,17475,-8151,
1123,7,27,2023,13,13,26,416,5171,1421,4224,6966,17123,-9026,
1124,7,27,2023,13,13,26,426,5535,1280,4772,7407,16959,-9722,
1125,7,27,2023,13,13,26,436,5774,1463,5441,7611,16893,-10381,
1126,7,27,2023,13,13,26,446,6499,1894,6131,7562,16984,-10826,
1127,7,27,2023,13,13,26,456,7556,1110,6847,7358,17116,-11117,
1128,7,27,2023,13,13,26,466,8297,318,7886,7016,17036,-11703,
1129,7,27,2023,13,13,26,476,10958,549,8708,6667,16694,-12204,
1130,7,27,2023,13,13,26,486,14945,1417,8297,6396,16551,-12439,
1131,7,27,2023,13,13,26,496,17650,2550,7184,5172,16634,-12567,
1132,7,27,2023,13,13,26,506,19854,1338,5931,2948,16116,-12212,
1133,7,27,2023,13,13,26,516,21476,-2047,3817,1726,14532,-11481,
1134,7,27,2023,13,13,26,526,21863,-3161,177,2936,12118,-10266,
1135,7,27,2023,13,13,26,536,22209,-3096,-4069,4776,9235,-8276,
1136,7,27,2023,13,13,26,546,20764,-5857,-7731,4877,6196,-5909,
1137,7,27,2023,13,13,26,556,19556,-7652,-8365,4283,3549,-3887,
1138,7,27,2023,13,13,26,566,18756,-5539,-7784,3474,1718,-2320,
1139,7,27,2023,13,13,26,576,17096,-3908,-6837,1564,277,-637,
1140,7,27,2023,13,13,26,586,14581,-4376,-5177,-379,-1589,1108,
1141,7,27,2023,13,13,26,596,10608,-1686,-3639,-1050,-4115,2834,
1142,7,27,2023,13,13,26,606,9801,10756,-6888,-2460,-9626,7069,
1143,7,27,2023,13,13,26,616,2055,9607,2932,-10601,-14689,14149,
1144,7,27,2023,13,13,26,626,27829,8259,12730,-9657,-18053,13864,
1145,7,27,2023,13,13,26,636,21988,1202,5817,-6593,-17022,6739,
1146,7,27,2023,13,13,26,646,12459,-1571,14540,-5627,-15139,6825,
1147,7,27,2023,13,13,26,656,10919,2419,13746,-8197,-6996,7624,
1148,7,27,2023,13,13,26,666,-209,-3992,3202,-5896,-1267,3955,
1149,7,27,2023,13,13,26,676,6180,-6490,-1126,-3228,-546,2855,
1150,7,27,2023,13,13,26,686,8646,-3230,-994,-2584,-553,2537,
1151,7,27,2023,13,13,26,696,1128,3136,5086,-1564,207,1067,
1152,7,27,2023,13,13,26,706,1257,2438,10375,-1421,1072,876,
1153,7,27,2023,13,13,26,716,1743,720,9024,-1231,-160,1245,
1154,7,27,2023,13,13,26,726,6342,-1312,4110,-971,-2094,1448,
1155,7,27,2023,13,13,26,736,3448,-1226,3266,-377,-2848,1043,
1156,7,27,2023,13,13,26,746,895,-48,5133,-62,-2676,446,
1157,7,27,2023,13,13,26,756,1297,452,6596,240,-2984,256,
1158,7,27,2023,13,13,26,766,3016,945,7335,530,-4487,370,
1159,7,27,2023,13,13,26,776,4125,483,7939,734,-6815,681,
1160,7,27,2023,13,13,26,786,1109,2216,8035,995,-9234,913,
1161,7,27,2023,13,13,26,796,-807,2176,7465,813,-10613,1631,
1162,7,27,2023,13,13,26,806,-1235,1759,7047,719,-11977,2584,
1163,7,27,2023,13,13,26,816,867,331,5088,84,-14113,3275,
1164,7,27,2023,13,13,26,826,2657,-1029,5483,28,-17097,3659,
1165,7,27,2023,13,13,26,836,3469,-395,6315,1336,-18659,3105,
1166,7,27,2023,13,13,26,846,6136,99,5688,2469,-18729,2369,
1167,7,27,2023,13,13,26,856,8201,-291,4613,3172,-17699,1838,
1168,7,27,2023,13,13,26,866,8861,-38,1969,4318,-16485,1809,
1169,7,27,2023,13,13,26,876,12173,1988,1193,5373,-14926,2215,
1170,7,27,2023,13,13,26,886,8253,3122,-1116,5644,-12028,3072,
1171,7,27,2023,13,13,26,896,3344,328,-3485,5302,-12217,5142,
1172,7,27,2023,13,13,26,906,10928,1874,-4102,6072,-13913,6721,
1173,7,27,2023,13,13,26,916,13481,3377,492,5683,-11324,6446,
1174,7,27,2023,13,13,26,926,7981,3458,2876,4612,-7314,5198,
1175,7,27,2023,13,13,26,936,6368,3501,4308,2902,-6237,4318,
1176,7,27,2023,13,13,26,946,5543,2051,5300,1400,-6308,3967,
1177,7,27,2023,13,13,26,956,5537,1199,5899,813,-6996,4114,
1178,7,27,2023,13,13,26,966,6103,1634,6246,1069,-7990,4498,
1179,7,27,2023,13,13,26,976,6356,2745,6451,1819,-8819,5098,
1180,7,27,2023,13,13,26,986,6617,3242,6313,2452,-9489,6141,
1181,7,27,2023,13,13,26,996,6643,3373,6199,2865,-9861,7200,
1182,7,27,2023,13,13,27,6,7098,3509,6199,3082,-10003,7969,
1183,7,27,2023,13,13,27,16,7942,3738,6232,3055,-9852,8452,
1184,7,27,2023,13,13,27,26,8927,3974,6497,2783,-9319,8653,
1185,7,27,2023,13,13,27,36,10346,4111,7020,2361,-8339,8500,
1186,7,27,2023,13,13,27,46,11325,4870,6861,1826,-6672,7897,
1187,7,27,2023,13,13,27,56,10532,6510,6688,511,-4116,6969,
1188,7,27,2023,13,13,27,66,8502,7357,6338,-2064,-1120,5828,
1189,7,27,2023,13,13,27,76,6236,6878,5766,-5094,1718,4703,
1190,7,27,2023,13,13,27,86,3851,6069,5287,-7590,4103,3761,
1191,7,27,2023,13,13,27,106,939,3679,3116,-9835,7788,2211,
1192,7,27,2023,13,13,27,116,326,2782,2111,-9361,9842,1557,
1193,7,27,2023,13,13,27,126,-395,2409,1915,-7769,11911,1054,
1194,7,27,2023,13,13,27,136,-675,2013,1816,-5249,13627,558,
1195,7,27,2023,13,13,27,146,-482,2474,1641,-2325,14993,-258,
1196,7,27,2023,13,13,27,156,564,3276,1337,260,16171,-1143,
1197,7,27,2023,13,13,27,166,1295,3486,1282,2359,17262,-2026,
1198,7,27,2023,13,13,27,176,2065,3726,1330,3908,17947,-3056,
1199,7,27,2023,13,13,27,186,2787,3625,1652,4710,18385,-4080,
1200,7,27,2023,13,13,27,196,3619,3181,2185,5174,18550,-5005,
1201,7,27,2023,13,13,27,206,4554,2600,2617,5657,18523,-5848,
1202,7,27,2023,13,13,27,216,4963,2494,2977,6138,18535,-6706,
1203,7,27,2023,13,13,27,226,4757,2441,3413,6374,18378,-7471,
1204,7,27,2023,13,13,27,236,4719,2144,3797,6330,17923,-7892,
1205,7,27,2023,13,13,27,246,5081,1670,4136,6347,17419,-8038,
1206,7,27,2023,13,13,27,256,5387,1259,4558,6664,17030,-8195,
1207,7,27,2023,13,13,27,266,5527,1262,5261,7134,16784,-8412,
1208,7,27,2023,13,13,27,276,6627,2163,5926,7476,16709,-8639,
1209,7,27,2023,13,13,27,286,8104,2969,6534,7455,16848,-8838,
1210,7,27,2023,13,13,27,296,8690,1688,6973,6781,16811,-9297,
1211,7,27,2023,13,13,27,306,10668,1757,7541,6296,16591,-10010,
1212,7,27,2023,13,13,27,316,14260,1441,7050,5972,16381,-10962,
1213,7,27,2023,13,13,27,326,17545,1462,5872,5200,16583,-12125,
1214,7,27,2023,13,13,27,336,18317,190,4622,4044,16192,-12726,
1215,7,27,2023,13,13,27,346,18246,-4078,2799,3677,14026,-12330,
1216,7,27,2023,13,13,27,356,20018,-5922,291,5778,10924,-11159,
1217,7,27,2023,13,13,27,366,21456,-3867,-3381,7901,7907,-9105,
1218,7,27,2023,13,13,27,376,21596,-4667,-6471,6645,5615,-5843,
1219,7,27,2023,13,13,27,386,20117,-7098,-6668,3947,4014,-2563,
1220,7,27,2023,13,13,27,396,18585,-6423,-6337,1687,2401,-319,
1221,7,27,2023,13,13,27,406,16526,-5796,-5473,-433,377,1193,
1222,7,27,2023,13,13,27,416,14972,-4234,-5838,-1885,-2733,2827,
1223,7,27,2023,13,13,27,426,14207,10267,-7538,-4123,-9195,8121,
1224,7,27,2023,13,13,27,436,10339,5399,5481,-12041,-14268,16292,
1225,7,27,2023,13,13,27,446,29251,8876,14447,-9180,-16895,13845,
1226,7,27,2023,13,13,27,456,13695,3553,9976,-6186,-16104,5128,
1227,7,27,2023,13,13,27,466,1255,450,13700,-4217,-15603,5399,
1228,7,27,2023,13,13,27,476,16836,1298,11553,-7270,-10231,8699,
1229,7,27,2023,13,13,27,486,8496,-4640,-442,-6139,-3957,4508,
1230,7,27,2023,13,13,27,496,3429,-8322,-437,-2828,-1537,2503,
1231,7,27,2023,13,13,27,506,1353,-1771,1743,-1733,-642,1901,
1232,7,27,2023,13,13,27,516,4642,5844,4519,-1427,407,1113,
1233,7,27,2023,13,13,27,526,8604,2060,7840,-2027,825,1637,
1234,7,27,2023,13,13,27,536,1903,-1424,8062,-1791,31,1816,
1235,7,27,2023,13,13,27,546,-640,-558,5392,-1157,-1110,1438,
1236,7,27,2023,13,13,27,556,1963,-557,4715,-551,-2003,1016,
1237,7,27,2023,13,13,27,566,5126,-910,4112,-172,-2710,608,
1238,7,27,2023,13,13,27,576,4608,-2,5534,74,-3928,508,
1239,7,27,2023,13,13,27,586,1602,1359,7562,208,-4764,291,
1240,7,27,2023,13,13,27,596,985,1190,8225,241,-5872,437,
1241,7,27,2023,13,13,27,606,-243,1777,8483,575,-8260,883,
1242,7,27,2023,13,13,27,616,2565,1278,6221,768,-10543,1560,
1243,7,27,2023,13,13,27,626,400,1915,5954,833,-12915,2716,
1244,7,27,2023,13,13,27,636,47,1340,7391,178,-14696,3169,
1245,7,27,2023,13,13,27,646,-568,220,7034,-4,-16327,3460,
1246,7,27,2023,13,13,27,656,2702,-333,5444,1252,-18668,3320,
1247,7,27,2023,13,13,27,666,7783,230,3813,2274,-20402,3133,
1248,7,27,2023,13,13,27,676,10086,-95,4214,3056,-19462,2445,
1249,7,27,2023,13,13,27,686,8493,-438,3109,4505,-16996,2139,
1250,7,27,2023,13,13,27,696,10452,1693,1646,6230,-14826,2299,
1251,7,27,2023,13,13,27,706,8100,2863,-930,6435,-12848,3491,
1252,7,27,2023,13,13,27,716,4090,1559,-2915,5564,-13233,5245,
1253,7,27,2023,13,13,27,726,9258,3217,-4947,5373,-14791,6266,
1254,7,27,2023,13,13,27,736,15127,5299,-437,3710,-12786,5550,
1255,7,27,2023,13,13,27,746,9194,4719,2080,952,-8199,3770,
1256,7,27,2023,13,13,27,756,7256,4543,3329,-1577,-6479,2481,
1257,7,27,2023,13,13,27,766,6550,2791,4783,-3354,-6290,2171,
1258,7,27,2023,13,13,27,776,6116,860,5791,-3846,-6946,2405,
1259,7,27,2023,13,13,27,786,6406,183,6632,-2790,-8252,2789,
1260,7,27,2023,13,13,27,796,6731,485,7172,-735,-9759,3217,
1261,7,27,2023,13,13,27,806,7050,1152,7267,1620,-11118,4018,
1262,7,27,2023,13,13,27,816,7581,1794,6962,3850,-12104,5155,
1263,7,27,2023,13,13,27,826,8030,2533,6609,5571,-12478,6347,
1264,7,27,2023,13,13,27,836,8888,3418,6428,6492,-12275,7480,
1265,7,27,2023,13,13,27,846,10346,4217,6486,6651,-11456,8422,
1266,7,27,2023,13,13,27,856,11457,5043,6495,6134,-9858,8924,
1267,7,27,2023,13,13,27,866,11167,6325,6438,4702,-7468,8818,
1268,7,27,2023,13,13,27,876,9762,7198,6360,2197,-4538,8093,
1269,7,27,2023,13,13,27,886,8090,7059,5818,-878,-1333,6764,
1270,7,27,2023,13,13,27,896,6037,6356,5616,-3839,1916,5223,
1271,7,27,2023,13,13,27,906,3791,5691,5164,-6109,4739,3809,
1272,7,27,2023,13,13,27,916,2282,4731,3986,-7454,7127,2772,
1273,7,27,2023,13,13,27,926,1545,3970,2916,-7892,9475,2040,
1274,7,27,2023,13,13,27,936,356,3505,2370,-7617,11942,1543,
1275,7,27,2023,13,13,27,946,-505,3174,1869,-6657,14270,1313,
1276,7,27,2023,13,13,27,966,-778,2355,1284,-2674,17660,998,
1277,7,27,2023,13,13,27,976,-60,1751,1139,10,18588,283,
1278,7,27,2023,13,13,27,986,1231,1912,1384,2965,19154,-934,
1279,7,27,2023,13,13,27,996,2378,2738,1632,5241,19495,-2479,
1280,7,27,2023,13,13,28,6,3212,3272,1861,6315,19669,-4057,
1281,7,27,2023,13,13,28,16,3646,3151,2257,6645,19655,-5410,
1282,7,27,2023,13,13,28,26,3880,2708,2750,6755,19368,-6459,
1283,7,27,2023,13,13,28,36,4267,2120,3348,6887,18825,-7251,
1284,7,27,2023,13,13,28,46,4830,1546,3936,7156,18126,-7910,
1285,7,27,2023,13,13,28,56,5252,1330,4240,7443,17548,-8408,
1286,7,27,2023,13,13,28,66,5601,1364,4557,7626,17307,-8751,
1287,7,27,2023,13,13,28,76,5920,1577,5010,7743,17358,-9006,
1288,7,27,2023,13,13,28,86,6178,2499,5384,7458,17677,-9109,
1289,7,27,2023,13,13,28,96,6536,2211,6013,6742,18000,-9011,
1290,7,27,2023,13,13,28,106,6977,1822,6984,6008,17836,-9261,
1291,7,27,2023,13,13,28,116,8564,1693,7997,5564,17254,-9624,
1292,7,27,2023,13,13,28,126,11476,1809,8339,5627,16682,-10245,
1293,7,27,2023,13,13,28,136,14984,2520,7977,5452,16364,-11461,
1294,7,27,2023,13,13,28,146,18886,2728,7003,4527,15924,-12793,
1295,7,27,2023,13,13,28,156,21830,678,5003,3576,14783,-13565,
1296,7,27,2023,13,13,28,166,22047,-3108,1771,3956,12582,-13320,
1297,7,27,2023,13,13,28,176,22093,-4748,-2350,5783,9640,-11834,
1298,7,27,2023,13,13,28,186,21978,-6097,-6081,7206,6693,-8674,
1299,7,27,2023,13,13,28,196,20975,-8095,-7482,7198,4429,-4617,
1300,7,27,2023,13,13,28,206,20507,-6028,-6836,5653,3015,-1115,
1301,7,27,2023,13,13,28,216,18843,-4281,-6422,1844,1979,1519,
1302,7,27,2023,13,13,28,226,15087,-5594,-5059,-1512,208,3290,
1303,7,27,2023,13,13,28,236,13394,-2840,-5647,-2710,-3366,4763,
1304,7,27,2023,13,13,28,246,7939,13759,-7520,-5306,-10666,9689,
1305,7,27,2023,13,13,28,256,9683,6332,7925,-13182,-15983,17094,
1306,7,27,2023,13,13,28,266,29787,10653,13020,-9834,-18486,12964,
1307,7,27,2023,13,13,28,276,16928,-2437,7513,-6653,-17333,5714,
1308,7,27,2023,13,13,28,286,13248,-668,18411,-6264,-14762,7422,
1309,7,27,2023,13,13,28,296,9700,778,9311,-8356,-5029,7353,
1310,7,27,2023,13,13,28,306,606,-6593,1786,-4508,-1011,2730,
1311,7,27,2023,13,13,28,316,7130,-6193,-1271,-2752,-640,2656,
1312,7,27,2023,13,13,28,326,6348,-927,-11,-2156,-504,2158,
1313,7,27,2023,13,13,28,336,1815,4314,6973,-1441,508,1044,
1314,7,27,2023,13,13,28,346,1021,3057,10584,-1414,1073,1065,
1315,7,27,2023,13,13,28,356,2265,558,7341,-1416,-448,1652,
1316,7,27,2023,13,13,28,366,5503,-2280,3510,-1219,-2302,1812,
1317,7,27,2023,13,13,28,376,1817,-1415,3811,-463,-2614,1198,
1318,7,27,2023,13,13,28,386,1345,-433,4831,60,-2689,503,
1319,7,27,2023,13,13,28,396,2229,1420,6772,575,-3358,233,
1320,7,27,2023,13,13,28,406,3732,789,6897,577,-4566,392,
1321,7,27,2023,13,13,28,416,3134,616,7381,821,-7003,956,
1322,7,27,2023,13,13,28,426,307,1070,7806,801,-9130,1105,
1323,7,27,2023,13,13,28,436,-572,1147,7133,811,-10324,1465,
1324,7,27,2023,13,13,28,446,-738,1500,6527,944,-11800,2062,
1325,7,27,2023,13,13,28,456,2761,-60,4645,488,-13947,2597,
1326,7,27,2023,13,13,28,466,1131,-569,5505,356,-16408,3006,
1327,7,27,2023,13,13,28,476,2203,-64,6215,1345,-17717,2638,
1328,7,27,2023,13,13,28,486,5437,1478,5470,2215,-18351,2260,
1329,7,27,2023,13,13,28,496,8995,476,4545,2633,-17516,1569,
1330,7,27,2023,13,13,28,506,8304,-56,1893,3246,-16354,1868,
1331,7,27,2023,13,13,28,516,12289,1329,2350,4222,-14996,1981,
1332,7,27,2023,13,13,28,526,9449,3299,787,4935,-11491,2358,
1333,7,27,2023,13,13,28,536,3161,1652,-1559,4468,-10352,4204,
1334,7,27,2023,13,13,28,546,6230,1236,-3441,4929,-11993,5636,
1335,7,27,2023,13,13,28,556,12347,2971,-399,4885,-11349,6300,
1336,7,27,2023,13,13,28,566,7782,2438,2135,3818,-7573,5452,
1337,7,27,2023,13,13,28,576,5765,2592,3351,2803,-5832,4088,
1338,7,27,2023,13,13,28,586,5430,2601,4717,1653,-5720,3357,
1339,7,27,2023,13,13,28,596,5080,1975,5367,699,-6225,3277,
1340,7,27,2023,13,13,28,606,5325,2241,5833,342,-7219,3543,
1341,7,27,2023,13,13,28,616,5934,3046,6290,373,-8328,4070,
1342,7,27,2023,13,13,28,626,6288,3406,6584,524,-9291,4997,
1343,7,27,2023,13,13,28,636,6585,3115,6565,861,-10059,6161,
1344,7,27,2023,13,13,28,646,6853,2884,6564,1599,-10473,7175,
1345,7,27,2023,13,13,28,656,7594,3025,6636,2479,-10548,7959,
1346,7,27,2023,13,13,28,666,8833,3548,6888,3166,-10191,8516,
1347,7,27,2023,13,13,28,676,10442,4179,7315,3510,-9254,8769,
1348,7,27,2023,13,13,28,686,11409,5333,7277,3379,-7544,8574,
1349,7,27,2023,13,13,28,696,10723,6732,6832,2328,-5025,7963,
1350,7,27,2023,13,13,28,706,8911,7663,6455,92,-2108,7016,
1351,7,27,2023,13,13,28,716,6898,7781,6008,-2921,745,5876,
1352,7,27,2023,13,13,28,726,4813,7016,5378,-5906,3218,4644,
1353,7,27,2023,13,13,28,736,2933,6023,4596,-8150,5314,3433,
1354,7,27,2023,13,13,28,746,1989,4805,3245,-9511,7274,2324,
1355,7,27,2023,13,13,28,756,1555,3834,2328,-9833,9433,1475,
1356,7,27,2023,13,13,28,766,900,2992,1987,-8962,11737,908,
1357,7,27,2023,13,13,28,776,773,2352,1639,-6935,13916,464,
1358,7,27,2023,13,13,28,786,936,2098,1395,-3984,15791,3,
1359,7,27,2023,13,13,28,796,852,2496,1095,-778,17128,-531,
1360,7,27,2023,13,13,28,806,1308,2827,759,1999,17959,-1143,
1361,7,27,2023,13,13,28,826,2536,2934,1176,5835,18344,-2688,
1362,7,27,2023,13,13,28,836,3304,3016,1491,6702,18240,-3676,
1363,7,27,2023,13,13,28,846,3957,2718,1929,7148,18107,-4603,
1364,7,27,2023,13,13,28,856,4354,2373,2363,7488,17912,-5517,
1365,7,27,2023,13,13,28,866,4556,2202,3204,7675,17560,-6451,
1366,7,27,2023,13,13,28,876,5187,1934,3881,7620,17049,-7294,
1367,7,27,2023,13,13,28,886,5790,1660,4167,7555,16749,-8051,
1368,7,27,2023,13,13,28,896,5875,1765,4564,7444,16757,-8854,
1369,7,27,2023,13,13,28,906,6006,2210,5256,7053,16850,-9541,
1370,7,27,2023,13,13,28,916,6711,1786,6017,6477,16902,-10077,
1371,7,27,2023,13,13,28,926,7405,1031,6668,5921,16716,-10805,
1372,7,27,2023,13,13,28,936,9120,1012,7247,5575,16227,-11459,
1373,7,27,2023,13,13,28,946,12082,1128,7308,5497,15709,-11992,
1374,7,27,2023,13,13,28,956,15588,1421,6902,5069,15355,-12816,
1375,7,27,2023,13,13,28,966,19360,1534,5931,3981,15203,-13583,
1376,7,27,2023,13,13,28,976,20749,-930,4191,2854,14801,-13709,
1377,7,27,2023,13,13,28,986,20627,-4722,1147,3377,12999,-12864,
1378,7,27,2023,13,13,28,996,21186,-5279,-2814,5509,10212,-10971,
1379,7,27,2023,13,13,29,6,20846,-5005,-6801,6303,7326,-7625,
1380,7,27,2023,13,13,29,16,20476,-6556,-8143,5268,5144,-3368,
1381,7,27,2023,13,13,29,26,19955,-6922,-7649,4018,3871,126,
1382,7,27,2023,13,13,29,36,18191,-5231,-6883,2426,2848,2292,
1383,7,27,2023,13,13,29,46,14587,-3478,-5517,187,1071,3643,
1384,7,27,2023,13,13,29,56,17698,892,-7582,-2541,-3075,5986,
1385,7,27,2023,13,13,29,66,4313,12070,-5128,-8066,-10711,12394,
1386,7,27,2023,13,13,29,76,18589,2550,10377,-11807,-15392,16804,
1387,7,27,2023,13,13,29,86,27194,11306,10732,-7163,-16829,9301,
1388,7,27,2023,13,13,29,96,8695,-2035,10061,-5132,-15452,3849,
1389,7,27,2023,13,13,29,106,8238,-1243,17496,-5595,-12701,6717,
1390,7,27,2023,13,13,29,116,9193,194,4733,-7214,-4795,6922,
1391,7,27,2023,13,13,29,126,8869,-5441,-2291,-4303,-1507,3062,
1392,7,27,2023,13,13,29,136,3103,-5752,-453,-2760,25,2295,
1393,7,27,2023,13,13,29,146,786,918,2647,-2063,1052,1360,
1394,7,27,2023,13,13,29,156,3520,5005,8137,-1860,1906,825,
1395,7,27,2023,13,13,29,166,5592,55,9602,-1854,1319,1320,
1396,7,27,2023,13,13,29,176,2342,-1227,6744,-1256,-500,1624,
1397,7,27,2023,13,13,29,186,597,50,4439,-651,-1746,1097,
1398,7,27,2023,13,13,29,196,2101,-1245,4665,-278,-2295,606,
1399,7,27,2023,13,13,29,206,4003,-515,4494,209,-2708,267,
1400,7,27,2023,13,13,29,216,5375,-123,5193,319,-3537,255,
1401,7,27,2023,13,13,29,226,2295,773,7490,506,-4599,92,
1402,7,27,2023,13,13,29,236,-141,1653,8550,788,-5937,45,
1403,7,27,2023,13,13,29,246,-495,2304,8914,1073,-8401,395,
1404,7,27,2023,13,13,29,256,1764,2162,7181,1116,-11035,1286,
1405,7,27,2023,13,13,29,266,281,1929,6875,853,-13188,2807,
1406,7,27,2023,13,13,29,276,-1243,1125,7084,365,-14959,3532,
1407,7,27,2023,13,13,29,286,-1053,85,7005,99,-17092,3741,
1408,7,27,2023,13,13,29,296,2118,-813,5675,1332,-19156,3406,
1409,7,27,2023,13,13,29,306,7402,-1093,3340,2517,-20719,3087,
1410,7,27,2023,13,13,29,316,11400,-46,4365,3261,-19951,2415,
1411,7,27,2023,13,13,29,326,8017,853,3500,3888,-16898,1900,
1412,7,27,2023,13,13,29,336,8151,1319,2987,4619,-14561,1724,
1413,7,27,2023,13,13,29,346,6983,2717,1003,4897,-12381,2461,
1414,7,27,2023,13,13,29,356,3528,1380,-1262,4350,-12231,4259,
1415,7,27,2023,13,13,29,366,7378,1822,-3195,4598,-13156,5637,
1416,7,27,2023,13,13,29,376,12504,2208,289,3533,-11008,5889,
1417,7,27,2023,13,13,29,386,7703,2780,2617,2565,-6443,4815,
1418,7,27,2023,13,13,29,396,6044,3579,3825,1353,-4312,3896,
1419,7,27,2023,13,13,29,406,5365,3258,4984,-221,-3955,3841,
1420,7,27,2023,13,13,29,416,4851,2538,5664,-1334,-4341,4234,
1421,7,27,2023,13,13,29,426,5151,1930,5961,-1801,-5166,4651,
1422,7,27,2023,13,13,29,436,5496,2426,6440,-1442,-6091,5075,
1423,7,27,2023,13,13,29,446,5728,2669,6751,-836,-7056,5800,
1424,7,27,2023,13,13,29,456,5866,2197,6807,62,-7902,6709,
1425,7,27,2023,13,13,29,466,6312,1970,6838,1458,-8445,7447,
1426,7,27,2023,13,13,29,476,7299,2209,7124,2917,-8495,7888,
1427,7,27,2023,13,13,29,486,8686,2580,7487,4196,-7952,8025,
1428,7,27,2023,13,13,29,496,9953,3717,7623,5117,-6845,7860,
1429,7,27,2023,13,13,29,506,10206,5835,7484,5008,-5094,7446,
1430,7,27,2023,13,13,29,516,9182,7681,6974,3247,-2760,6811,
1431,7,27,2023,13,13,29,526,7458,8133,6175,150,-283,6040,
1432,7,27,2023,13,13,29,536,5633,7639,5420,-3216,1952,5177,
1433,7,27,2023,13,13,29,546,3918,6963,4568,-6021,3832,4235,
1434,7,27,2023,13,13,29,556,2639,6075,3570,-8070,5460,3317,
1435,7,27,2023,13,13,29,566,1732,4848,2566,-9214,7114,2432,
1436,7,27,2023,13,13,29,576,1136,3236,2004,-9034,8982,1543,
1437,7,27,2023,13,13,29,586,939,1550,1867,-7152,10993,393,
1438,7,27,2023,13,13,29,596,687,1315,1822,-3910,12788,-1181,
1439,7,27,2023,13,13,29,606,804,2634,1461,-573,14023,-2704,
1440,7,27,2023,13,13,29,616,1086,3449,1197,1893,14972,-3766,
1441,7,27,2023,13,13,29,626,1544,3380,1326,3448,15681,-4622,
1442,7,27,2023,13,13,29,636,2268,2941,1705,4532,16102,-5375,
1443,7,27,2023,13,13,29,646,3197,2305,2108,5471,16535,-6015,
1444,7,27,2023,13,13,29,656,3478,1778,2628,6424,16967,-6594,
1445,7,27,2023,13,13,29,666,3845,1844,3181,7275,17095,-7097,
1446,7,27,2023,13,13,29,686,4608,1942,4366,7791,17033,-7576,
1447,7,27,2023,13,13,29,696,5057,1745,4797,7617,16928,-7609,
1448,7,27,2023,13,13,29,706,5669,1425,5247,7539,16945,-7703,
1449,7,27,2023,13,13,29,716,5650,1574,5486,7379,17093,-8051,
1450,7,27,2023,13,13,29,726,5249,1453,5850,7101,17198,-8497,
1451,7,27,2023,13,13,29,736,5684,1029,6623,6695,16956,-9141,
1452,7,27,2023,13,13,29,746,7676,813,7508,6266,16411,-9955,
1453,7,27,2023,13,13,29,756,9885,731,7937,6009,15929,-10890,
1454,7,27,2023,13,13,29,766,12318,592,7509,5625,15667,-12025,
1455,7,27,2023,13,13,29,776,15553,531,6097,4890,15394,-13007,
1456,7,27,2023,13,13,29,786,18354,519,4437,3746,14806,-13228,
1457,7,27,2023,13,13,29,796,20203,-1826,2651,2849,13336,-12315,
1458,7,27,2023,13,13,29,806,21540,-5447,29,3672,10799,-10805,
1459,7,27,2023,13,13,29,816,22552,-6258,-3842,5525,8017,-9032,
1460,7,27,2023,13,13,29,826,21439,-6047,-7315,5603,5577,-6302,
1461,7,27,2023,13,13,29,836,20215,-6390,-7866,3663,3396,-2778,
1462,7,27,2023,13,13,29,846,19460,-5667,-6961,1294,1622,58,
1463,7,27,2023,13,13,29,856,17111,-4849,-6113,-582,-136,1533,
1464,7,27,2023,13,13,29,866,19777,-1865,-10361,-2358,-4014,3456,
1465,7,27,2023,13,13,29,876,8125,9135,-10343,-7609,-12505,10103,
1466,7,27,2023,13,13,29,886,21991,-571,11417,-10880,-19285,17072,
1467,7,27,2023,13,13,29,896,28547,13008,14405,-6009,-17837,10357,
1468,7,27,2023,13,13,29,906,5681,323,10731,-5642,-14886,4948,
1469,7,27,2023,13,13,29,916,15132,-1675,16656,-7088,-11914,6689,
1470,7,27,2023,13,13,29,926,11058,-1334,3124,-7222,-3760,6151,
1471,7,27,2023,13,13,29,936,513,-2832,1050,-3776,-935,2818,
1472,7,27,2023,13,13,29,946,330,-5996,803,-3153,-267,2672,
1473,7,27,2023,13,13,29,956,5564,-31,1212,-2077,-41,1762,
1474,7,27,2023,13,13,29,966,9612,2007,6469,-1751,916,1250,
1475,7,27,2023,13,13,29,976,975,2377,10214,-1325,1000,931,
1476,7,27,2023,13,13,29,986,-286,1280,7532,-1077,-380,1341,
1477,7,27,2023,13,13,29,996,852,-780,4735,-879,-2078,1426,
1478,7,27,2023,13,13,30,6,6000,-2562,3057,-406,-2717,990,
1479,7,27,2023,13,13,30,16,4608,-829,4202,-22,-3529,522,
1480,7,27,2023,13,13,30,26,1949,745,6895,63,-3794,-228,
1481,7,27,2023,13,13,30,36,1096,1999,8304,285,-4716,-250,
1482,7,27,2023,13,13,30,46,286,1888,8926,399,-6795,213,
1483,7,27,2023,13,13,30,56,2747,1482,7462,483,-9728,1202,
1484,7,27,2023,13,13,30,66,455,2020,7600,561,-12338,2234,
1485,7,27,2023,13,13,30,76,-1903,2368,7638,539,-13229,3061,
1486,7,27,2023,13,13,30,86,-1554,1374,7406,-211,-15246,3973,
1487,7,27,2023,13,13,30,96,1679,-742,5093,-6,-17905,4069,
1488,7,27,2023,13,13,30,106,6193,-757,4576,1444,-20351,4098,
1489,7,27,2023,13,13,30,116,8055,-326,5054,2547,-20209,3255,
1490,7,27,2023,13,13,30,126,6706,-306,3786,3702,-18006,2383,
1491,7,27,2023,13,13,30,136,6549,646,3205,5179,-16040,2046,
1492,7,27,2023,13,13,30,146,8072,1716,2934,5844,-13946,2392,
1493,7,27,2023,13,13,30,156,5093,2040,879,5193,-12618,3672,
1494,7,27,2023,13,13,30,166,3170,1193,-2167,4360,-12880,4365,
1495,7,27,2023,13,13,30,176,10029,1088,-1991,3713,-12627,4391,
1496,7,27,2023,13,13,30,186,11154,2200,1274,3011,-8914,3363,
1497,7,27,2023,13,13,30,196,6846,4215,2260,2161,-4633,2314,
1498,7,27,2023,13,13,30,206,5429,4658,3028,-131,-2874,2290,
1499,7,27,2023,13,13,30,216,4589,3567,3943,-2583,-2338,2766,
1500,7,27,2023,13,13,30,226,4427,2824,4783,-3974,-2659,3241,
1501,7,27,2023,13,13,30,236,4702,2100,5383,-4585,-3545,3651,
1502,7,27,2023,13,13,30,246,4543,1482,6047,-4229,-4742,4048,
1503,7,27,2023,13,13,30,256,4218,1178,6742,-2991,-6269,4461,
1504,7,27,2023,13,13,30,266,4175,662,6940,-1164,-7945,4928,
1505,7,27,2023,13,13,30,276,4509,636,6850,1065,-9422,5367,
1506,7,27,2023,13,13,30,286,5642,1252,6849,3279,-10505,5825,
1507,7,27,2023,13,13,30,296,7746,2206,7199,5080,-10988,6360,
1508,7,27,2023,13,13,30,306,10047,3584,7759,6099,-10622,6794,
1509,7,27,2023,13,13,30,316,11494,5503,7665,6072,-9229,6872,
1510,7,27,2023,13,13,30,326,11169,7492,7059,4509,-6716,6558,
1511,7,27,2023,13,13,30,336,9346,8184,6480,1272,-3391,5734,
1512,7,27,2023,13,13,30,346,7166,7101,6004,-2416,-109,4437,
1513,7,27,2023,13,13,30,356,5691,5454,5290,-5255,2537,3169,
1514,7,27,2023,13,13,30,366,3987,4825,4286,-6772,4824,1965,
1515,7,27,2023,13,13,30,376,2445,4351,3191,-7554,6938,1093,
1516,7,27,2023,13,13,30,386,1827,3548,2461,-7788,9035,532,
1517,7,27,2023,13,13,30,396,1513,2695,2209,-7150,11294,151,
1518,7,27,2023,13,13,30,406,1822,2070,1881,-5589,13533,-212,
1519,7,27,2023,13,13,30,416,1938,1932,1585,-3255,15624,-554,
1520,7,27,2023,13,13,30,426,1621,2003,1304,-678,17236,-831,
1521,7,27,2023,13,13,30,436,1710,1930,1290,1677,18211,-1276,
1522,7,27,2023,13,13,30,446,2055,1898,1554,3773,18641,-1890,
1523,7,27,2023,13,13,30,456,2533,1950,1900,5511,18614,-2639,
1524,7,27,2023,13,13,30,466,3247,1883,2111,6735,18427,-3533,
1525,7,27,2023,13,13,30,476,3671,2185,2428,7577,18247,-4506,
1526,7,27,2023,13,13,30,486,3868,2209,3193,8025,17841,-5460,
1527,7,27,2023,13,13,30,496,4471,1815,3947,8130,17251,-6363,
1528,7,27,2023,13,13,30,506,5313,1871,4397,8117,16804,-7210,
1529,7,27,2023,13,13,30,516,6047,2127,4881,8003,16644,-8086,
1530,7,27,2023,13,13,30,526,6335,2404,5337,7523,16798,-9003,
1531,7,27,2023,13,13,30,546,7354,1463,6812,6190,17121,-10753,
1532,7,27,2023,13,13,30,556,8762,800,7384,5802,16706,-11975,
1533,7,27,2023,13,13,30,566,10851,774,7931,5684,16029,-13098,
1534,7,27,2023,13,13,30,576,14078,24,7569,5565,15161,-14174,
1535,7,27,2023,13,13,30,586,18318,264,5964,5316,14368,-15069,
1536,7,27,2023,13,13,30,596,21155,283,3832,4748,13546,-14962,
1537,7,27,2023,13,13,30,606,22051,-1601,1335,4280,12091,-13563,
1538,7,27,2023,13,13,30,616,22519,-3631,-2408,4282,9988,-11265,
1539,7,27,2023,13,13,30,626,21734,-5879,-6652,4403,7881,-7916,
1540,7,27,2023,13,13,30,636,20506,-6909,-8739,4460,5961,-3926,
1541,7,27,2023,13,13,30,646,19118,-6162,-8324,3570,4238,-461,
1542,7,27,2023,13,13,30,656,18062,-4864,-7260,1453,2447,1490,
1543,7,27,2023,13,13,30,666,15024,-3271,-7120,-1080,66,2710,
1544,7,27,2023,13,13,30,676,23713,4633,-13877,-4046,-6070,7008,
1545,7,27,2023,13,13,30,686,4622,14,-2746,-11315,-13699,16544,
1546,7,27,2023,13,13,30,696,31058,7943,18568,-7685,-18911,16446,
1547,7,27,2023,13,13,30,706,16909,10863,10697,-5196,-14823,5836,
1548,7,27,2023,13,13,30,716,3315,-3417,9252,-4009,-14102,4098,
1549,7,27,2023,13,13,30,726,14794,1299,13808,-5649,-12300,8502,
1550,7,27,2023,13,13,30,736,5680,1533,1964,-6559,-4278,6016,
1551,7,27,2023,13,13,30,746,-391,-4191,302,-3850,-1571,2710,
1552,7,27,2023,13,13,30,756,5748,-5150,-1903,-3325,-169,3167,
1553,7,27,2023,13,13,30,766,9821,206,1087,-2803,191,2490,
1554,7,27,2023,13,13,30,776,2617,4673,8324,-2370,1849,1453,
1555,7,27,2023,13,13,30,786,-1194,1367,10834,-2254,1724,1576,
1556,7,27,2023,13,13,30,796,1290,-1132,7325,-1771,-296,1840,
1557,7,27,2023,13,13,30,806,6745,-3176,2871,-1108,-2071,1555,
1558,7,27,2023,13,13,30,816,4084,-1757,3356,-279,-2846,807,
1559,7,27,2023,13,13,30,826,1431,301,5797,139,-2791,20,
1560,7,27,2023,13,13,30,836,1736,1819,7722,204,-3278,-148,
1561,7,27,2023,13,13,30,846,1898,1174,8184,290,-4885,217,
1562,7,27,2023,13,13,30,856,3280,491,7720,590,-7601,776,
1563,7,27,2023,13,13,30,866,937,1343,8014,734,-10381,1166,
1564,7,27,2023,13,13,30,876,-630,1384,7098,798,-11603,1755,
1565,7,27,2023,13,13,30,886,-1367,2087,6765,835,-12655,2468,
1566,7,27,2023,13,13,30,896,640,430,4707,146,-14483,3080,
1567,7,27,2023,13,13,30,906,1928,-510,4861,118,-17572,3595,
1568,7,27,2023,13,13,30,916,2436,719,5539,1202,-19269,3262,
1569,7,27,2023,13,13,30,926,6948,1163,5020,1995,-19273,2748,
1570,7,27,2023,13,13,30,936,8628,725,4012,2406,-17720,2189,
1571,7,27,2023,13,13,30,946,7416,-564,1861,3179,-16215,2222,
1572,7,27,2023,13,13,30,956,10473,1235,3139,4346,-15055,2233,
1573,7,27,2023,13,13,30,966,7969,2627,2740,4944,-11976,2486,
1574,7,27,2023,13,13,30,976,3246,1296,-353,5000,-10790,3562,
1575,7,27,2023,13,13,30,986,5695,748,-2480,5269,-11215,4700,
1576,7,27,2023,13,13,30,996,12087,2092,513,4921,-9632,4832,
1577,7,27,2023,13,13,31,6,7250,3332,2301,3935,-5379,3961,
1578,7,27,2023,13,13,31,16,5369,4362,3007,2041,-3316,3071,
1579,7,27,2023,13,13,31,26,5169,4111,4238,-790,-3067,3089,
1580,7,27,2023,13,13,31,36,4495,3226,5038,-2906,-3423,3394,
1581,7,27,2023,13,13,31,46,4946,2740,5766,-3891,-4413,3809,
1582,7,27,2023,13,13,31,56,5156,2231,6534,-3999,-5516,4311,
1583,7,27,2023,13,13,31,66,5120,1710,7095,-3137,-6640,4890,
1584,7,27,2023,13,13,31,76,5235,1151,7345,-1403,-7743,5603,
1585,7,27,2023,13,13,31,86,5654,1085,7493,928,-8594,6322,
1586,7,27,2023,13,13,31,96,7051,1606,7614,3343,-9043,7033,
1587,7,27,2023,13,13,31,106,9020,2709,8079,5328,-8852,7694,
1588,7,27,2023,13,13,31,116,10534,4633,8338,6435,-7873,8055,
1589,7,27,2023,13,13,31,126,10967,6871,7974,5958,-6028,8057,
1590,7,27,2023,13,13,31,136,10295,8200,7352,3692,-3326,7614,
1591,7,27,2023,13,13,31,146,8783,8209,6479,468,-107,6508,
1592,7,27,2023,13,13,31,156,6855,7654,5510,-2927,2970,5252,
1593,7,27,2023,13,13,31,166,4308,7008,4424,-5739,5530,4003,
1594,7,27,2023,13,13,31,176,2212,6112,3304,-7828,7419,2905,
1595,7,27,2023,13,13,31,186,807,4769,2516,-9110,8826,2107,
1596,7,27,2023,13,13,31,196,264,2982,2171,-8968,10089,1407,
1597,7,27,2023,13,13,31,206,282,733,1994,-7011,11515,368,
1598,7,27,2023,13,13,31,216,778,116,1925,-3307,12992,-1172,
1599,7,27,2023,13,13,31,226,1084,1445,1602,957,14191,-2609,
1600,7,27,2023,13,13,31,236,1083,2758,1319,4121,14928,-3673,
1601,7,27,2023,13,13,31,246,1477,3194,1487,5764,15292,-4469,
1602,7,27,2023,13,13,31,256,2374,2958,1900,6512,15475,-5083,
1603,7,27,2023,13,13,31,266,3505,2404,2324,6965,15726,-5683,
1604,7,27,2023,13,13,31,276,4245,2086,2735,7410,16195,-6334,
1605,7,27,2023,13,13,31,286,4206,1995,3177,7767,16651,-6936,
1606,7,27,2023,13,13,31,296,4112,1906,3709,7910,16693,-7373,
1607,7,27,2023,13,13,31,306,4519,1884,4187,7798,16427,-7712,
1608,7,27,2023,13,13,31,316,5187,1787,4541,7628,16114,-8096,
1609,7,27,2023,13,13,31,326,5503,1801,4939,7258,15979,-8668,
1610,7,27,2023,13,13,31,336,5556,1851,5644,6839,15948,-9348,
1611,7,27,2023,13,13,31,346,6283,1700,6511,6530,15865,-10058,
1612,7,27,2023,13,13,31,356,7842,-975,6597,6565,15522,-10969,
1613,7,27,2023,13,13,31,366,10161,292,6515,7564,15083,-12161,
1614,7,27,2023,13,13,31,376,12246,1722,6688,7807,14519,-13089,
1615,7,27,2023,13,13,31,386,15674,1028,5889,6526,13914,-13870,
1616,7,27,2023,13,13,31,406,21347,-2496,2319,4566,13285,-13871,
1617,7,27,2023,13,13,31,416,21160,-5910,-249,5370,11790,-12419,
1618,7,27,2023,13,13,31,426,21447,-6665,-3609,6673,9320,-10293,
1619,7,27,2023,13,13,31,436,22141,-4481,-7142,6046,6626,-7049,
1620,7,27,2023,13,13,31,446,21069,-4711,-8606,2745,4665,-2589,
1621,7,27,2023,13,13,31,456,19350,-6947,-7327,262,3073,1222,
1622,7,27,2023,13,13,31,466,16242,-4576,-5290,-465,1073,2708,
1623,7,27,2023,13,13,31,476,22980,201,-11328,-4207,-3712,4429,
1624,7,27,2023,13,13,31,486,8089,2014,-10027,-12623,-11702,11441,
1625,7,27,2023,13,13,31,496,24977,-1700,16015,-12967,-17709,18084,
1626,7,27,2023,13,13,31,506,20564,11078,13231,-7106,-14554,9699,
1627,7,27,2023,13,13,31,516,3311,-3035,8044,-4972,-13329,3881,
1628,7,27,2023,13,13,31,526,14398,-1480,16383,-5768,-13149,6892,
1629,7,27,2023,13,13,31,536,7821,1233,4188,-6799,-3993,5884,
1630,7,27,2023,13,13,31,546,286,-3007,1300,-3568,-850,2193,
1631,7,27,2023,13,13,31,556,6250,-7012,-1358,-2952,-428,2795,
1632,7,27,2023,13,13,31,566,7098,-865,833,-2068,-472,2188,
1633,7,27,2023,13,13,31,576,3419,4841,7529,-1576,919,1037,
1634,7,27,2023,13,13,31,586,221,3033,10593,-1695,1332,1274,
1635,7,27,2023,13,13,31,596,1304,-471,7813,-1529,-325,1775,
1636,7,27,2023,13,13,31,606,6197,-2773,3301,-1143,-2229,1815,
1637,7,27,2023,13,13,31,616,3970,-1877,3265,-317,-2904,1224,
1638,7,27,2023,13,13,31,626,847,231,5622,197,-2818,356,
1639,7,27,2023,13,13,31,636,1624,1338,7520,402,-3311,99,
1640,7,27,2023,13,13,31,646,2625,998,7982,531,-5020,310,
1641,7,27,2023,13,13,31,656,3024,909,7924,761,-7822,879,
1642,7,27,2023,13,13,31,666,435,1782,8202,830,-10584,1217,
1643,7,27,2023,13,13,31,676,-1348,1931,7405,760,-11780,1977,
1644,7,27,2023,13,13,31,686,-1395,2308,7281,426,-13288,2836,
1645,7,27,2023,13,13,31,696,491,-526,5140,-171,-15735,3379,
1646,7,27,2023,13,13,31,706,2800,-572,5321,552,-18961,3775,
1647,7,27,2023,13,13,31,716,4614,388,6229,1898,-20365,3264,
1648,7,27,2023,13,13,31,726,8048,73,5560,2829,-19634,2566,
1649,7,27,2023,13,13,31,736,8675,-271,3468,3993,-17612,1958,
1650,7,27,2023,13,13,31,746,8851,-220,1805,5481,-15894,1883,
1651,7,27,2023,13,13,31,756,10965,2051,1899,6467,-13779,2325,
1652,7,27,2023,13,13,31,766,6205,2711,-1170,6298,-11266,3569,
1653,7,27,2023,13,13,31,776,4405,2739,-4539,5417,-11281,5225,
1654,7,27,2023,13,13,31,786,12350,4854,-2359,3487,-10840,5775,
1655,7,27,2023,13,13,31,796,9339,3780,1103,133,-6850,4607,
1656,7,27,2023,13,13,31,806,5629,3433,2268,-2370,-4279,3164,
1657,7,27,2023,13,13,31,816,5503,2989,3754,-4037,-4227,2782,
1658,7,27,2023,13,13,31,826,4445,1664,5056,-4990,-4874,2972,
1659,7,27,2023,13,13,31,836,4054,663,5756,-4615,-6136,3271,
1660,7,27,2023,13,13,31,846,4132,-119,6200,-3121,-7567,3545,
1661,7,27,2023,13,13,31,856,4979,-54,6380,-755,-8971,3764,
1662,7,27,2023,13,13,31,866,5492,1175,6336,1862,-10039,4297,
1663,7,27,2023,13,13,31,876,5971,2010,5941,4073,-10742,5248,
1664,7,27,2023,13,13,31,886,6473,2702,5765,5657,-10992,6329,
1665,7,27,2023,13,13,31,896,7369,3323,5780,6546,-10892,7357,
1666,7,27,2023,13,13,31,906,8628,3846,5956,6822,-10451,8139,
1667,7,27,2023,13,13,31,916,9900,4628,6316,6483,-9641,8576,
1668,7,27,2023,13,13,31,926,10880,6035,6775,5500,-8470,8687,
1669,7,27,2023,13,13,31,936,11356,7283,6456,3703,-6692,8280,
1670,7,27,2023,13,13,31,946,10589,7895,5367,937,-3870,7120,
1671,7,27,2023,13,13,31,956,8377,7520,5085,-2606,-423,5548,
1672,7,27,2023,13,13,31,966,6178,6431,4850,-5667,2626,4005,
1673,7,27,2023,13,13,31,976,4230,5882,4065,-7547,5144,2829,
1674,7,27,2023,13,13,31,986,3007,5077,3113,-8625,7449,2044,
1675,7,27,2023,13,13,31,996,2514,3580,2471,-8774,9762,1550,
1676,7,27,2023,13,13,32,6,2083,2487,2084,-7650,12320,1054,
1677,7,27,2023,13,13,32,16,1626,2499,1654,-5566,14971,518,
1678,7,27,2023,13,13,32,26,1034,3042,1344,-3151,17128,67,
1679,7,27,2023,13,13,32,36,407,2834,1159,-937,18399,-381,
1680,7,27,2023,13,13,32,46,868,2128,1205,1271,18909,-1078,
1681,7,27,2023,13,13,32,56,1288,1475,1611,3640,19014,-2104,
1682,7,27,2023,13,13,32,66,1681,1585,1993,5682,18771,-3540,
1683,7,27,2023,13,13,32,76,2347,1915,2393,7108,18363,-4995,
1684,7,27,2023,13,13,32,86,2765,2117,2945,7874,17830,-6240,
1685,7,27,2023,13,13,32,96,3373,2031,3713,8091,17165,-7209,
1686,7,27,2023,13,13,32,106,4083,1775,4473,8006,16593,-7907,
1687,7,27,2023,13,13,32,116,4780,1322,5132,7892,16164,-8399,
1688,7,27,2023,13,13,32,126,5787,1154,5540,7936,16093,-8873,
1689,7,27,2023,13,13,32,136,6169,1399,5783,7979,16489,-9493,
1690,7,27,2023,13,13,32,146,5631,1787,6017,7318,17039,-10215,
1691,7,27,2023,13,13,32,156,5411,1711,6468,6103,17286,-10732,
1692,7,27,2023,13,13,32,166,6672,393,7277,5256,17071,-11011,
1693,7,27,2023,13,13,32,176,8904,-396,7407,5054,16679,-11375,
1694,7,27,2023,13,13,32,186,11617,418,7190,5478,16363,-11766,
1695,7,27,2023,13,13,32,196,15178,1845,6481,5055,16091,-12249,
1696,7,27,2023,13,13,32,206,19604,2976,5238,3236,15929,-12450,
1697,7,27,2023,13,13,32,216,23211,1704,3353,1190,15394,-11853,
1698,7,27,2023,13,13,32,226,23245,-4101,124,1009,13737,-10541,
1699,7,27,2023,13,13,32,236,21691,-8778,-3990,3971,10850,-8882,
1700,7,27,2023,13,13,32,246,20653,-9479,-7027,8220,7065,-6758,
1701,7,27,2023,13,13,32,266,21072,-3334,-6862,5608,1167,-2107,
1702,7,27,2023,13,13,32,276,17945,-3644,-6608,-125,68,-318,
1703,7,27,2023,13,13,32,286,24699,-4939,-15059,-3588,-4078,3195,
1704,7,27,2023,13,13,32,296,5849,5017,-11688,-7993,-12688,12341,
1705,7,27,2023,13,13,32,306,27325,7379,14894,-8729,-19155,18946,
1706,7,27,2023,13,13,32,316,21953,14022,9463,-5869,-15637,9214,
1707,7,27,2023,13,13,32,326,6213,-2402,12418,-5826,-13647,4387,
1708,7,27,2023,13,13,32,336,9391,2308,18686,-7841,-9985,7779,
1709,7,27,2023,13,13,32,346,6914,-320,3225,-7459,-2406,6566,
1710,7,27,2023,13,13,32,356,6391,-8158,-1274,-4328,-684,3270,
1711,7,27,2023,13,13,32,366,3452,-5234,-1697,-3298,-96,3152,
1712,7,27,2023,13,13,32,376,1304,2277,2289,-2082,507,1492,
1713,7,27,2023,13,13,32,386,3514,4424,9307,-1984,1729,1020,
1714,7,27,2023,13,13,32,396,3793,1520,10010,-1857,1162,1373,
1715,7,27,2023,13,13,32,406,3521,-422,6004,-1594,-1231,1822,
1716,7,27,2023,13,13,32,416,1162,-2142,3945,-1163,-2600,1516,
1717,7,27,2023,13,13,32,426,1862,-1940,4623,-528,-2596,824,
1718,7,27,2023,13,13,32,436,2558,358,6191,-46,-3245,56,
1719,7,27,2023,13,13,32,446,4537,466,7056,12,-4621,-148,
1720,7,27,2023,13,13,32,456,2026,1194,7958,191,-6834,241,
1721,7,27,2023,13,13,32,466,-79,1940,8897,344,-8807,606,
1722,7,27,2023,13,13,32,476,338,2201,8318,570,-10823,1398,
1723,7,27,2023,13,13,32,486,-189,1963,7072,635,-12227,2189,
1724,7,27,2023,13,13,32,496,552,1217,5058,360,-13878,3476,
1725,7,27,2023,13,13,32,506,134,-227,6294,-379,-16774,4197,
1726,7,27,2023,13,13,32,516,918,-562,6502,372,-18544,3789,
1727,7,27,2023,13,13,32,526,4831,756,5432,1529,-19552,3226,
1728,7,27,2023,13,13,32,536,7953,-408,3405,1715,-19089,2415,
1729,7,27,2023,13,13,32,546,9212,-230,2499,2042,-18290,2312,
1730,7,27,2023,13,13,32,556,10576,1584,3322,2730,-15841,1870,
1731,7,27,2023,13,13,32,566,8309,3118,3150,2672,-12562,2147,
1732,7,27,2023,13,13,32,576,3786,2600,303,1745,-11318,3214,
1733,7,27,2023,13,13,32,586,3382,-755,-2347,1237,-12095,4015,
1734,7,27,2023,13,13,32,596,12104,543,-457,2215,-11640,4111,
1735,7,27,2023,13,13,32,606,8743,3382,2321,2767,-7453,3530,
1736,7,27,2023,13,13,32,616,5957,4618,3322,1435,-4684,3067,
1737,7,27,2023,13,13,32,626,4989,4059,4578,-980,-4017,3253,
1738,7,27,2023,13,13,32,636,4382,2528,5436,-2652,-4228,3564,
1739,7,27,2023,13,13,32,646,4763,1292,6009,-3055,-5003,3820,
1740,7,27,2023,13,13,32,656,5449,1122,6418,-2248,-5929,4080,
1741,7,27,2023,13,13,32,666,5700,1603,6725,-793,-6797,4530,
1742,7,27,2023,13,13,32,676,5832,1604,6617,763,-7575,5275,
1743,7,27,2023,13,13,32,686,5943,1741,6507,2427,-8140,6086,
1744,7,27,2023,13,13,32,696,6175,1882,6533,3858,-8450,6833,
1745,7,27,2023,13,13,32,706,6695,2303,6737,4772,-8503,7399,
1746,7,27,2023,13,13,32,716,7978,3383,7032,5256,-8230,7780,
1747,7,27,2023,13,13,32,726,9599,4266,7092,5234,-7400,8072,
1748,7,27,2023,13,13,32,736,10221,5365,6880,4524,-5821,7951,
1749,7,27,2023,13,13,32,746,9386,6587,6615,2756,-3517,7149,
1750,7,27,2023,13,13,32,756,7569,7274,5938,-145,-884,5755,
1751,7,27,2023,13,13,32,766,5876,6680,5348,-3433,1563,4196,
1752,7,27,2023,13,13,32,776,3913,5357,4764,-6117,3685,2699,
1753,7,27,2023,13,13,32,786,2245,4653,3639,-7693,5604,1355,
1754,7,27,2023,13,13,32,796,1395,3803,2476,-8414,7505,332,
1755,7,27,2023,13,13,32,806,692,2458,1690,-8199,9504,-293,
1756,7,27,2023,13,13,32,816,310,1386,1407,-6644,11403,-692,
1757,7,27,2023,13,13,32,826,342,653,1350,-3882,12994,-1013,
1758,7,27,2023,13,13,32,836,886,852,1221,-535,14259,-1470,
1759,7,27,2023,13,13,32,846,1862,1712,1074,2459,15419,-2129,
1760,7,27,2023,13,13,32,856,2455,2428,1170,4571,16493,-2921,
1761,7,27,2023,13,13,32,866,2873,2922,1337,5695,17240,-3855,
1762,7,27,2023,13,13,32,876,3505,2996,1724,5984,17641,-4867,
1763,7,27,2023,13,13,32,886,4146,2528,2119,5965,17736,-5772,
1764,7,27,2023,13,13,32,896,4554,2052,2585,6048,17639,-6644,
1765,7,27,2023,13,13,32,906,4896,1704,3431,6278,17399,-7552,
1766,7,27,2023,13,13,32,916,5298,1510,4150,6529,17041,-8431,
1767,7,27,2023,13,13,32,926,5709,1653,4586,6710,16744,-9182,
1768,7,27,2023,13,13,32,936,6231,1993,5086,6747,16627,-9804,
1769,7,27,2023,13,13,32,946,6731,2461,5706,6478,16641,-10251,
1770,7,27,2023,13,13,32,956,7766,3044,6242,6062,16781,-10548,
1771,7,27,2023,13,13,32,966,8574,2436,6900,5562,16904,-10786,
1772,7,27,2023,13,13,32,976,9969,887,6953,5296,16587,-11195,
1773,7,27,2023,13,13,32,986,12409,1438,6799,5735,16126,-11652,
1774,7,27,2023,13,13,32,996,14945,1902,6336,5898,15634,-12080,
1775,7,27,2023,13,13,33,6,16998,1159,5955,4935,15184,-12787,
1776,7,27,2023,13,13,33,16,18756,-1414,5087,3691,14406,-13310,
1777,7,27,2023,13,13,33,26,20230,-3938,2602,3924,12984,-12963,
1778,7,27,2023,13,13,33,36,21448,-4207,-1236,5490,10898,-11262,
1779,7,27,2023,13,13,33,46,21393,-4575,-6356,5697,8381,-7925,
1780,7,27,2023,13,13,33,56,20768,-7027,-9005,4303,6006,-3412,
1781,7,27,2023,13,13,33,66,20782,-8445,-8762,3189,4213,448,
1782,7,27,2023,13,13,33,76,20070,-6891,-7685,2415,2993,2478,
1783,7,27,2023,13,13,33,86,17839,-6001,-6680,738,1478,3183,
1784,7,27,2023,13,13,33,96,14299,-3977,-4735,-618,-870,3777,
1785,7,27,2023,13,13,33,106,10814,1611,-2552,-1700,-4166,5559,
1786,7,27,2023,13,13,33,126,5418,7399,6488,-11602,-13334,15023,
1787,7,27,2023,13,13,33,136,29166,7565,9831,-9026,-16816,11761,
1788,7,27,2023,13,13,33,146,17680,-1624,9860,-5998,-14880,5239,
1789,7,27,2023,13,13,33,156,4452,-1264,14871,-5260,-11670,6412,
1790,7,27,2023,13,13,33,166,11689,-709,9404,-7194,-6708,7674,
1791,7,27,2023,13,13,33,176,4626,-3102,1965,-4432,-2939,3150,
1792,7,27,2023,13,13,33,186,2604,-4911,390,-2250,-1217,2184,
1793,7,27,2023,13,13,33,196,2774,-468,1283,-1984,-374,1979,
1794,7,27,2023,13,13,33,206,7279,2934,4173,-1847,503,1457,
1795,7,27,2023,13,13,33,216,4686,1195,8238,-1771,565,1503,
1796,7,27,2023,13,13,33,226,134,1136,7600,-1414,69,1457,
1797,7,27,2023,13,13,33,236,1386,64,5587,-1103,-1157,1394,
1798,7,27,2023,13,13,33,246,4429,-2410,4279,-734,-2015,1113,
1799,7,27,2023,13,13,33,256,5516,-1505,4391,-44,-2733,717,
1800,7,27,2023,13,13,33,266,2020,749,6807,308,-3219,67,
1801,7,27,2023,13,13,33,276,768,2330,8543,578,-4336,44,
1802,7,27,2023,13,13,33,286,-17,1657,9646,519,-6749,452,
1803,7,27,2023,13,13,33,296,1883,1559,8016,816,-9614,1133,
1804,7,27,2023,13,13,33,306,892,1697,7136,712,-12489,2321,
1805,7,27,2023,13,13,33,316,-1720,1529,7213,429,-13879,3097,
1806,7,27,2023,13,13,33,326,-1387,1060,6570,32,-15431,3589,
1807,7,27,2023,13,13,33,336,357,-915,5371,213,-17868,3627,
1808,7,27,2023,13,13,33,346,4857,-1062,3622,1688,-20271,3504,
1809,7,27,2023,13,13,33,356,9521,705,5070,2876,-20633,2832,
1810,7,27,2023,13,13,33,366,8126,158,4103,3448,-18048,2138,
1811,7,27,2023,13,13,33,376,7056,706,2741,4564,-15880,1944,
1812,7,27,2023,13,13,33,386,10203,1986,2707,5392,-13826,1927,
1813,7,27,2023,13,13,33,396,6026,2873,734,5044,-11675,3313,
1814,7,27,2023,13,13,33,406,3337,1580,-2371,4435,-11983,4820,
1815,7,27,2023,13,13,33,416,9281,2101,-2370,3895,-12273,5830,
1816,7,27,2023,13,13,33,426,10823,2436,1236,2312,-9102,5335,
1817,7,27,2023,13,13,33,436,6304,3729,2467,1280,-5276,4131,
1818,7,27,2023,13,13,33,446,6091,4512,3779,-416,-4149,3689,
1819,7,27,2023,13,13,33,456,5276,3914,5014,-2349,-4099,3964,
1820,7,27,2023,13,13,33,466,5001,2926,5713,-3468,-4812,4281,
1821,7,27,2023,13,13,33,476,5414,2142,6231,-3649,-5928,4519,
1822,7,27,2023,13,13,33,486,5816,1933,6831,-2793,-7066,4776,
1823,7,27,2023,13,13,33,496,6108,1691,7000,-1362,-8189,5182,
1824,7,27,2023,13,13,33,506,6144,1520,6992,418,-9113,5719,
1825,7,27,2023,13,13,33,516,6641,1893,7061,2246,-9735,6249,
1826,7,27,2023,13,13,33,526,7815,2236,7361,3677,-9847,6753,
1827,7,27,2023,13,13,33,536,9484,2538,7876,4696,-9337,7043,
1828,7,27,2023,13,13,33,546,11029,3877,7977,5419,-8089,7006,
1829,7,27,2023,13,13,33,556,11314,6089,7495,5153,-5884,6724,
1830,7,27,2023,13,13,33,566,9593,7869,6967,2962,-2770,6088,
1831,7,27,2023,13,13,33,576,6895,7795,6285,-558,363,5214,
1832,7,27,2023,13,13,33,586,5044,6538,5451,-3906,2817,4349,
1833,7,27,2023,13,13,33,596,3170,5919,4483,-6221,4854,3466,
1834,7,27,2023,13,13,33,606,1558,5051,3303,-7778,6611,2716,
1835,7,27,2023,13,13,33,616,710,3863,2232,-8535,8256,2141,
1836,7,27,2023,13,13,33,626,241,2644,1850,-8043,10041,1642,
1837,7,27,2023,13,13,33,636,338,1419,1872,-6172,11809,972,
1838,7,27,2023,13,13,33,646,661,1114,1749,-3113,13488,-139,
1839,7,27,2023,13,13,33,656,985,2207,1483,116,14904,-1428,
1840,7,27,2023,13,13,33,666,1138,2918,1376,2549,16021,-2609,
1841,7,27,2023,13,13,33,676,1764,3242,1424,4025,16713,-3840,
1842,7,27,2023,13,13,33,686,2375,3153,1862,4617,17096,-4935,
1843,7,27,2023,13,13,33,696,3198,2334,2370,4997,17168,-5777,
1844,7,27,2023,13,13,33,706,3846,1567,2841,5664,17239,-6507,
1845,7,27,2023,13,13,33,716,4061,1530,3432,6455,17245,-7161,
1846,7,27,2023,13,13,33,726,4441,1536,4094,7030,17043,-7627,
1847,7,27,2023,13,13,33,736,4927,1432,4429,7269,16747,-7896,
1848,7,27,2023,13,13,33,746,5413,1419,4722,7312,16634,-8029,
1849,7,27,2023,13,13,33,756,5681,1511,5120,7278,16643,-8207,
1850,7,27,2023,13,13,33,766,5676,1702,5611,7022,16684,-8435,
1851,7,27,2023,13,13,33,776,6330,2051,6272,6740,16666,-8684,
1852,7,27,2023,13,13,33,786,7765,1872,7165,6463,16656,-9138,
1853,7,27,2023,13,13,33,796,9533,2406,8056,5859,16671,-10064,
1854,7,27,2023,13,13,33,806,11402,2691,8279,4830,16543,-11053,
1855,7,27,2023,13,13,33,816,14109,1897,7844,3757,16208,-12100,
1856,7,27,2023,13,13,33,826,17730,1441,6315,2747,15892,-13148,
1857,7,27,2023,13,13,33,836,20384,1084,4066,2048,15370,-13452,
1858,7,27,2023,13,13,33,846,20976,-1802,1279,2119,13808,-12497,
1859,7,27,2023,13,13,33,856,21329,-6050,-2082,4035,11068,-10822,
1860,7,27,2023,13,13,33,866,20774,-8642,-6125,6937,7921,-8902,
1861,7,27,2023,13,13,33,876,20729,-7301,-8659,8228,5180,-6440,
1862,7,27,2023,13,13,33,886,21301,-5089,-8847,6156,3360,-3120,
1863,7,27,2023,13,13,33,896,20597,-4833,-7939,2174,2436,201,
1864,7,27,2023,13,13,33,906,17976,-7478,-6696,-843,1268,2619,
1865,7,27,2023,13,13,33,916,13613,-5253,-4665,-1032,-1164,3999,
1866,7,27,2023,13,13,33,926,14632,3781,-5746,-1653,-5727,6714,
1867,7,27,2023,13,13,33,936,-2568,16472,-1488,-7729,-12363,13728,
1868,7,27,2023,13,13,33,946,20854,8187,12987,-10901,-17264,17826,
1869,7,27,2023,13,13,33,956,30878,8504,7558,-8183,-17786,9000,
1870,7,27,2023,13,13,33,966,14226,-3711,11470,-5790,-15855,4850,
1871,7,27,2023,13,13,33,986,3040,-2084,5259,-6443,-3093,5581,
1872,7,27,2023,13,13,33,996,1393,-5439,440,-2637,-1701,2100,
1873,7,27,2023,13,13,34,6,9839,-4675,-3212,-2273,-1037,2666,
1874,7,27,2023,13,13,34,16,3956,2288,954,-1753,-305,1698,
1875,7,27,2023,13,13,34,26,975,4615,8077,-1789,1422,1120,
1876,7,27,2023,13,13,34,36,507,1408,9866,-1854,1165,1538,
1877,7,27,2023,13,13,34,46,4264,-858,5697,-1620,-552,1807,
1878,7,27,2023,13,13,34,56,4535,-2658,3634,-1019,-2137,1579,
1879,7,27,2023,13,13,34,66,1971,-1325,4327,-83,-2208,572,
1880,7,27,2023,13,13,34,76,2091,110,5543,162,-2457,7,
1881,7,27,2023,13,13,34,86,1777,1258,7220,409,-3324,-145,
1882,7,27,2023,13,13,34,96,4101,695,7251,560,-5205,251,
1883,7,27,2023,13,13,34,106,1895,1188,8123,656,-7914,690,
1884,7,27,2023,13,13,34,116,-134,2156,8085,834,-9959,857,
1885,7,27,2023,13,13,34,126,-612,2464,7578,850,-11291,1629,
1886,7,27,2023,13,13,34,136,-82,1818,5839,733,-12563,2671,
1887,7,27,2023,13,13,34,146,1805,771,5332,19,-15044,3669,
1888,7,27,2023,13,13,34,156,-617,-425,6479,-55,-17256,3825,
1889,7,27,2023,13,13,34,166,2003,209,5630,1261,-18920,3499,
1890,7,27,2023,13,13,34,176,7789,791,5462,2192,-19536,2851,
1891,7,27,2023,13,13,34,186,8063,-662,2538,2533,-18378,2275,
1892,7,27,2023,13,13,34,196,10781,219,2602,3334,-17392,2241,
1893,7,27,2023,13,13,34,206,10066,1565,3577,4185,-14448,1760,
1894,7,27,2023,13,13,34,216,7589,2588,1835,4328,-11399,2308,
1895,7,27,2023,13,13,34,226,3036,1425,-1704,3816,-10795,3691,
1896,7,27,2023,13,13,34,236,7529,1658,-3840,4081,-11625,4877,
1897,7,27,2023,13,13,34,246,12211,3319,-150,3275,-9430,4944,
1898,7,27,2023,13,13,34,256,6878,3207,1806,1712,-5223,3916,
1899,7,27,2023,13,13,34,266,5674,3121,2995,-32,-3809,2953,
1900,7,27,2023,13,13,34,276,5158,2396,4240,-1669,-3925,2748,
1901,7,27,2023,13,13,34,286,4284,1595,5190,-2485,-4738,2949,
1902,7,27,2023,13,13,34,296,4051,732,5757,-2457,-6120,3250,
1903,7,27,2023,13,13,34,306,4367,184,6173,-1431,-7590,3510,
1904,7,27,2023,13,13,34,316,4850,467,6425,303,-8950,3885,
1905,7,27,2023,13,13,34,326,5406,974,6285,2272,-10063,4567,
1906,7,27,2023,13,13,34,336,6133,1910,6044,4243,-10749,5525,
1907,7,27,2023,13,13,34,346,7267,2959,5993,5720,-10920,6758,
1908,7,27,2023,13,13,34,356,8932,3930,6376,6419,-10606,8036,
1909,7,27,2023,13,13,34,366,10773,5097,6827,6334,-9794,9131,
1910,7,27,2023,13,13,34,376,11937,6481,7060,5403,-8333,9770,
1911,7,27,2023,13,13,34,386,11886,7534,6524,3563,-6077,9664,
1912,7,27,2023,13,13,34,396,10584,7623,5760,934,-3112,8692,
1913,7,27,2023,13,13,34,406,8854,6963,5467,-2057,112,6995,
1914,7,27,2023,13,13,34,416,6664,6908,4753,-4701,3159,5066,
1915,7,27,2023,13,13,34,426,4416,6952,3669,-6800,5767,3498,
1916,7,27,2023,13,13,34,436,2668,6040,2729,-8626,7971,2494,
1917,7,27,2023,13,13,34,446,1525,4581,2160,-9557,9841,1912,
1918,7,27,2023,13,13,34,456,689,3195,1758,-9132,11704,1319,
1919,7,27,2023,13,13,34,466,445,1705,1453,-7332,13452,553,
1920,7,27,2023,13,13,34,476,52,887,1543,-4162,14869,-553,
1921,7,27,2023,13,13,34,486,71,1308,1493,-553,15605,-1960,
1922,7,27,2023,13,13,34,496,500,1965,1423,2623,15954,-3198,
1923,7,27,2023,13,13,34,506,1233,2484,1731,4859,16151,-4326,
1924,7,27,2023,13,13,34,516,2434,2800,2106,6075,16264,-5382,
1925,7,27,2023,13,13,34,526,3348,2722,2582,6475,16539,-6323,
1926,7,27,2023,13,13,34,536,3842,2264,3117,6560,16863,-7074,
1927,7,27,2023,13,13,34,546,4044,1922,3575,6609,17105,-7624,
1928,7,27,2023,13,13,34,556,4205,1551,4254,6678,17100,-7933,
1929,7,27,2023,13,13,34,566,4836,1231,4877,6831,16810,-8061,
1930,7,27,2023,13,13,34,576,5759,1171,5220,7007,16694,-8108,
1931,7,27,2023,13,13,34,586,6268,1424,5412,7210,16860,-8238,
1932,7,27,2023,13,13,34,596,6316,1328,5547,7074,17220,-8538,
1933,7,27,2023,13,13,34,606,6013,1324,5940,6556,17551,-9114,
1934,7,27,2023,13,13,34,616,6420,965,6545,5765,17380,-9760,
1935,7,27,2023,13,13,34,626,8058,6,6899,5164,16740,-10464,
1936,7,27,2023,13,13,34,636,10909,-719,7035,5189,16046,-11236,
1937,7,27,2023,13,13,34,646,14654,-372,6623,5298,15594,-12284,
1938,7,27,2023,13,13,34,656,19063,1286,5511,4786,15591,-13104,
1939,7,27,2023,13,13,34,666,22274,1786,3646,3257,15617,-12806,
1940,7,27,2023,13,13,34,676,22938,-2537,587,2194,14663,-11171,
1941,7,27,2023,13,13,34,686,22046,-6891,-3419,3614,12331,-9145,
1942,7,27,2023,13,13,34,696,20383,-7199,-7196,5931,8800,-6789,
1943,7,27,2023,13,13,34,706,20218,-5499,-8929,5957,5003,-3766,
1944,7,27,2023,13,13,34,716,21196,-5166,-8080,3792,2531,-886,
1945,7,27,2023,13,13,34,726,20049,-5127,-6690,1952,1517,625,
1946,7,27,2023,13,13,34,736,14704,-3401,-6199,711,195,1117,
1947,7,27,2023,13,13,34,746,18600,558,-10298,-2124,-4252,3145,
1948,7,27,2023,13,13,34,756,4374,10726,-9562,-8641,-12569,10252,
1949,7,27,2023,13,13,34,766,22211,3404,11082,-12037,-19159,17470,
1950,7,27,2023,13,13,34,776,25617,9641,11472,-7891,-17608,10903,
1951,7,27,2023,13,13,34,786,9218,-4165,13465,-6755,-13720,5713,
1952,7,27,2023,13,13,34,796,11334,-1183,16436,-7994,-8566,6781,
1953,7,27,2023,13,13,34,806,10731,-1998,1969,-6461,-1147,5588,
1954,7,27,2023,13,13,34,816,872,-5136,2029,-3347,-227,2510,
1955,7,27,2023,13,13,34,826,460,-4880,1229,-2579,-342,2188,
1956,7,27,2023,13,13,34,846,9745,1513,6891,-1390,596,1027,
1957,7,27,2023,13,13,34,856,2850,862,8925,-1123,51,1162,
1958,7,27,2023,13,13,34,866,-359,1743,6637,-862,-1075,1155,
1959,7,27,2023,13,13,34,876,655,-573,4648,-724,-2189,1268,
1960,7,27,2023,13,13,34,886,4236,-1135,4139,-248,-2717,923,
1961,7,27,2023,13,13,34,896,5595,-1111,5376,167,-3638,741,
1962,7,27,2023,13,13,34,906,2293,1026,7445,664,-4963,419,
1963,7,27,2023,13,13,34,916,57,1496,8652,554,-6267,318,
1964,7,27,2023,13,13,34,926,-396,1642,8738,928,-8595,631,
1965,7,27,2023,13,13,34,936,1831,1486,6812,996,-10913,1329,
1966,7,27,2023,13,13,34,946,921,1253,6030,900,-13013,2547,
1967,7,27,2023,13,13,34,956,-331,948,6550,376,-14585,2958,
1968,7,27,2023,13,13,34,966,-386,-442,6293,-54,-16201,3226,
1969,7,27,2023,13,13,34,976,1445,-901,5879,897,-18218,2864,
1970,7,27,2023,13,13,34,986,6242,-738,3510,2125,-19821,2375,
1971,7,27,2023,13,13,34,996,11757,1032,4743,2636,-19640,1853,
1972,7,27,2023,13,13,35,6,9928,887,3838,2747,-16828,1598,
1973,7,27,2023,13,13,35,16,10632,1475,2469,3071,-14254,1842,
1974,7,27,2023,13,13,35,26,8670,1950,598,3431,-11598,2396,
1975,7,27,2023,13,13,35,36,3336,-153,-1899,3795,-11017,4197,
1976,7,27,2023,13,13,35,46,8848,1446,-3652,5342,-12163,5984,
1977,7,27,2023,13,13,35,56,12284,3727,-153,4713,-9747,6453,
1978,7,27,2023,13,13,35,66,6540,2425,2235,3066,-5339,5385,
1979,7,27,2023,13,13,35,76,5463,2444,3485,1719,-3862,4261,
1980,7,27,2023,13,13,35,86,5062,2332,4745,613,-3866,3915,
1981,7,27,2023,13,13,35,96,4492,2051,5456,-181,-4539,4192,
1982,7,27,2023,13,13,35,106,4808,2004,5971,-493,-5674,4698,
1983,7,27,2023,13,13,35,116,5397,2736,6338,-204,-6912,5323,
1984,7,27,2023,13,13,35,126,5826,3449,6615,363,-8031,6245,
1985,7,27,2023,13,13,35,136,5866,3288,6596,1054,-9006,7401,
1986,7,27,2023,13,13,35,146,6005,2828,6476,2012,-9761,8344,
1987,7,27,2023,13,13,35,156,6741,3075,6243,3048,-10183,8933,
1988,7,27,2023,13,13,35,166,8079,3743,6400,3830,-10072,9298,
1989,7,27,2023,13,13,35,176,9473,4194,6600,4090,-9277,9327,
1990,7,27,2023,13,13,35,186,10453,4868,6881,3838,-7846,8926,
1991,7,27,2023,13,13,35,196,10542,5903,6940,3063,-5925,8085,
1992,7,27,2023,13,13,35,206,9274,7082,6490,1356,-3651,6838,
1993,7,27,2023,13,13,35,216,7158,7652,5681,-1507,-1364,5468,
1994,7,27,2023,13,13,35,226,5278,7010,5012,-4620,570,4222,
