Packet #, Month, Day, Year, Hour, Minute, Second, MS, ACC X, ACC Y, ACC Z, GYR X, GYR Y, GYR Z
1,7,27,2023,12,43,50,239,2417,405,3308,-10,8,11,
2,7,27,2023,12,43,50,249,2407,402,3309,-6,1,8,
3,7,27,2023,12,43,50,259,2372,414,3292,0,-21,2,
4,7,27,2023,12,43,50,269,2384,412,3284,9,-45,4,
5,7,27,2023,12,43,50,279,2419,415,3284,9,-58,8,
6,7,27,2023,12,43,50,289,2435,429,3279,6,-59,6,
7,7,27,2023,12,43,50,299,2421,426,3281,5,-55,11,
8,7,27,2023,12,43,50,309,2390,420,3277,3,-56,15,
9,7,27,2023,12,43,50,319,2407,418,3289,-1,-66,16,
10,7,27,2023,12,43,50,329,2451,400,3274,-1,-70,18,
11,7,27,2023,12,43,50,339,2441,409,3271,-1,-59,15,
12,7,27,2023,12,43,50,349,2418,406,3268,3,-53,12,
13,7,27,2023,12,43,50,359,2423,404,3260,2,-55,9,
14,7,27,2023,12,43,50,369,2415,423,3245,4,-52,5,
15,7,27,2023,12,43,50,379,2400,417,3248,3,-49,7,
16,7,27,2023,12,43,50,389,2422,407,3257,3,-47,11,
17,7,27,2023,12,43,50,399,2433,437,3260,0,-36,15,
18,7,27,2023,12,43,50,409,2451,437,3266,-5,-28,23,
19,7,27,2023,12,43,50,419,2460,416,3269,-10,-18,27,
20,7,27,2023,12,43,50,429,2440,412,3273,-9,-1,25,
21,7,27,2023,12,43,50,439,2410,421,3278,-8,0,21,
22,7,27,2023,12,43,50,449,2399,410,3277,-12,-9,20,
23,7,27,2023,12,43,50,459,2411,411,3277,-10,-19,23,
24,7,27,2023,12,43,50,469,2435,409,3275,-9,-25,21,
25,7,27,2023,12,43,50,479,2434,403,3279,-6,-24,16,
26,7,27,2023,12,43,50,489,2437,416,3279,-5,-27,14,
27,7,27,2023,12,43,50,499,2439,420,3268,-6,-25,16,
28,7,27,2023,12,43,50,509,2435,417,3266,-8,-18,16,
29,7,27,2023,12,43,50,519,2412,403,3262,-11,-22,16,
30,7,27,2023,12,43,50,529,2415,403,3263,-9,-27,18,
31,7,27,2023,12,43,50,539,2447,418,3259,-8,-22,21,
32,7,27,2023,12,43,50,549,2453,405,3257,-4,-12,16,
33,7,27,2023,12,43,50,559,2428,400,3254,-5,1,16,
34,7,27,2023,12,43,50,569,2423,410,3265,-10,9,13,
35,7,27,2023,12,43,50,579,2426,407,3280,-11,10,13,
36,7,27,2023,12,43,50,589,2427,405,3266,-10,8,14,
37,7,27,2023,12,43,50,599,2428,404,3266,-8,7,12,
38,7,27,2023,12,43,50,609,2432,398,3269,-5,2,12,
39,7,27,2023,12,43,50,619,2443,411,3273,-9,4,12,
40,7,27,2023,12,43,50,629,2446,415,3285,-10,11,11,
41,7,27,2023,12,43,50,639,2430,411,3273,-5,11,9,
42,7,27,2023,12,43,50,649,2414,414,3273,-4,9,11,
43,7,27,2023,12,43,50,659,2434,411,3274,-6,3,12,
44,7,27,2023,12,43,50,669,2439,410,3274,-3,-4,13,
45,7,27,2023,12,43,50,679,2435,406,3271,-7,-3,12,
46,7,27,2023,12,43,50,689,2425,398,3263,-6,2,7,
47,7,27,2023,12,43,50,699,2421,396,3264,-3,6,6,
48,7,27,2023,12,43,50,709,2416,411,3262,-5,9,5,
49,7,27,2023,12,43,50,719,2411,421,3272,-6,14,3,
50,7,27,2023,12,43,50,729,2410,412,3275,-14,17,11,
51,7,27,2023,12,43,50,739,2425,425,3268,-11,17,15,
52,7,27,2023,12,43,50,749,2432,405,3271,-11,7,13,
53,7,27,2023,12,43,50,759,2421,378,3280,-16,17,12,
54,7,27,2023,12,43,50,769,2424,381,3274,-7,13,8,
55,7,27,2023,12,43,50,779,2415,422,3273,1,6,5,
56,7,27,2023,12,43,50,789,2403,424,3285,2,-1,8,
57,7,27,2023,12,43,50,799,2412,428,3277,1,-13,14,
58,7,27,2023,12,43,50,809,2432,432,3272,-4,-20,18,
59,7,27,2023,12,43,50,819,2438,430,3261,-13,-14,25,
60,7,27,2023,12,43,50,829,2437,410,3268,-13,-4,31,
61,7,27,2023,12,43,50,839,2439,403,3270,-18,5,37,
62,7,27,2023,12,43,50,849,2430,393,3280,-18,15,28,
63,7,27,2023,12,43,50,859,2433,376,3282,-17,17,25,
64,7,27,2023,12,43,50,869,2416,380,3279,-10,12,21,
65,7,27,2023,12,43,50,879,2422,385,3284,-6,10,13,
66,7,27,2023,12,43,50,889,2435,405,3265,2,2,7,
67,7,27,2023,12,43,50,899,2421,427,3280,6,0,2,
68,7,27,2023,12,43,50,909,2426,411,3283,0,-6,8,
69,7,27,2023,12,43,50,919,2438,408,3284,-1,-5,11,
70,7,27,2023,12,43,50,929,2422,415,3279,-4,-5,12,
71,7,27,2023,12,43,50,939,2419,405,3274,-4,-6,13,
72,7,27,2023,12,43,50,949,2413,398,3278,-4,-7,14,
73,7,27,2023,12,43,50,959,2409,404,3273,-6,-17,13,
74,7,27,2023,12,43,50,969,2414,402,3272,-2,-29,16,
75,7,27,2023,12,43,50,979,2416,402,3276,-3,-33,16,
76,7,27,2023,12,43,50,989,2435,399,3278,0,-35,16,
77,7,27,2023,12,43,50,999,2442,399,3278,0,-31,15,
78,7,27,2023,12,43,51,9,2428,397,3273,-3,-25,15,
79,7,27,2023,12,43,51,19,2407,403,3265,-5,-25,10,
80,7,27,2023,12,43,51,29,2416,408,3271,-5,-32,10,
81,7,27,2023,12,43,51,39,2432,411,3275,-3,-37,14,
82,7,27,2023,12,43,51,49,2437,404,3271,-3,-36,17,
83,7,27,2023,12,43,51,59,2440,396,3285,0,-35,13,
84,7,27,2023,12,43,51,69,2437,402,3279,-1,-30,10,
85,7,27,2023,12,43,51,79,2427,402,3273,-3,-30,12,
86,7,27,2023,12,43,51,99,2473,368,3268,-6,-31,12,
87,7,27,2023,12,43,51,109,2457,415,3266,3,-22,27,
88,7,27,2023,12,43,51,119,2399,372,3253,4,-27,31,
89,7,27,2023,12,43,51,129,2339,472,3318,7,-26,12,
90,7,27,2023,12,43,51,139,2448,387,3243,-4,-32,5,
91,7,27,2023,12,43,51,149,2442,411,3256,-1,-21,1,
92,7,27,2023,12,43,51,159,2416,408,3258,-8,-17,5,
93,7,27,2023,12,43,51,169,2427,393,3265,-9,-19,10,
94,7,27,2023,12,43,51,179,2454,394,3263,-7,-13,10,
95,7,27,2023,12,43,51,189,2455,398,3257,-4,-5,11,
96,7,27,2023,12,43,51,199,2462,383,3257,-3,1,11,
97,7,27,2023,12,43,51,209,2677,207,2956,-12,-2,23,
98,7,27,2023,12,43,51,219,2340,403,3453,-26,-33,48,
99,7,27,2023,12,43,51,229,2133,656,3363,34,27,-53,
100,7,27,2023,12,43,51,239,3086,-181,2982,-72,-74,64,
101,7,27,2023,12,43,51,249,2130,1026,3378,67,70,-56,
102,7,27,2023,12,43,51,259,2489,-77,3242,-70,-60,59,
103,7,27,2023,12,43,51,269,2428,469,3241,22,14,-31,
104,7,27,2023,12,43,51,279,2399,585,3314,3,-22,21,
105,7,27,2023,12,43,51,289,2752,171,3183,-42,-38,29,
106,7,27,2023,12,43,51,299,2618,299,3067,3,-22,9,
107,7,27,2023,12,43,51,309,2715,523,3165,-6,-36,38,
108,7,27,2023,12,43,51,319,2447,215,3236,-27,-55,37,
109,7,27,2023,12,43,51,329,2648,268,3226,-6,-61,25,
110,7,27,2023,12,43,51,339,2567,252,3078,-8,-57,35,
111,7,27,2023,12,43,51,349,2517,376,3159,3,-71,36,
112,7,27,2023,12,43,51,359,2540,310,3276,1,-91,26,
113,7,27,2023,12,43,51,369,2443,322,3239,12,-83,20,
114,7,27,2023,12,43,51,379,2455,417,3214,20,-90,13,
115,7,27,2023,12,43,51,389,2548,360,3158,16,-104,26,
116,7,27,2023,12,43,51,399,2527,362,3183,16,-121,50,
117,7,27,2023,12,43,51,409,2490,315,3227,17,-150,65,
118,7,27,2023,12,43,51,419,2489,322,3256,32,-178,79,
119,7,27,2023,12,43,51,429,2539,417,3282,57,-190,90,
120,7,27,2023,12,43,51,439,2556,303,3219,42,-195,93,
121,7,27,2023,12,43,51,449,2503,307,3193,49,-218,91,
122,7,27,2023,12,43,51,459,2398,355,3269,65,-262,90,
123,7,27,2023,12,43,51,469,2379,407,3321,64,-320,100,
124,7,27,2023,12,43,51,479,2476,446,3258,27,-373,128,
125,7,27,2023,12,43,51,489,2639,328,3177,-14,-440,152,
126,7,27,2023,12,43,51,499,2516,291,3208,-33,-502,184,
127,7,27,2023,12,43,51,509,2444,400,3250,-53,-570,212,
128,7,27,2023,12,43,51,519,2583,330,3208,-63,-637,247,
129,7,27,2023,12,43,51,529,2699,306,3148,-38,-681,274,
130,7,27,2023,12,43,51,539,2654,330,3163,-15,-705,273,
131,7,27,2023,12,43,51,549,2685,251,3176,5,-750,275,
132,7,27,2023,12,43,51,559,2774,210,3102,41,-812,292,
133,7,27,2023,12,43,51,569,2781,260,3092,71,-866,298,
134,7,27,2023,12,43,51,579,2707,216,3126,69,-903,281,
135,7,27,2023,12,43,51,589,2805,254,3089,62,-932,279,
136,7,27,2023,12,43,51,599,2899,197,2994,37,-949,265,
137,7,27,2023,12,43,51,609,2913,186,2968,18,-970,242,
138,7,27,2023,12,43,51,619,2882,129,2959,5,-989,208,
139,7,27,2023,12,43,51,629,2839,218,2943,9,-1005,198,
140,7,27,2023,12,43,51,639,2853,175,2904,-12,-1019,178,
141,7,27,2023,12,43,51,649,2898,243,2923,-4,-1016,170,
142,7,27,2023,12,43,51,659,2909,294,2927,5,-979,170,
143,7,27,2023,12,43,51,669,2910,338,2919,3,-935,179,
144,7,27,2023,12,43,51,679,2963,289,2909,-16,-910,196,
145,7,27,2023,12,43,51,689,2890,320,2878,-20,-886,213,
146,7,27,2023,12,43,51,699,2945,236,2829,-42,-905,236,
147,7,27,2023,12,43,51,709,3109,175,2733,-43,-928,267,
148,7,27,2023,12,43,51,719,3109,171,2729,-39,-941,288,
149,7,27,2023,12,43,51,729,3023,174,2837,-18,-935,280,
150,7,27,2023,12,43,51,739,3005,173,2886,-4,-910,254,
151,7,27,2023,12,43,51,749,3037,135,2790,5,-902,233,
152,7,27,2023,12,43,51,759,2994,189,2795,8,-922,212,
153,7,27,2023,12,43,51,769,2947,145,2829,-9,-945,175,
154,7,27,2023,12,43,51,779,3029,163,2811,-13,-966,143,
155,7,27,2023,12,43,51,789,3120,132,2726,-17,-970,119,
156,7,27,2023,12,43,51,799,3145,127,2662,-7,-981,112,
157,7,27,2023,12,43,51,809,3010,203,2754,7,-1004,89,
158,7,27,2023,12,43,51,819,3001,184,2812,15,-1055,83,
159,7,27,2023,12,43,51,829,3046,160,2786,26,-1117,95,
160,7,27,2023,12,43,51,839,3099,216,2780,47,-1203,98,
161,7,27,2023,12,43,51,849,3170,293,2740,51,-1280,102,
162,7,27,2023,12,43,51,859,3199,264,2781,6,-1365,145,
163,7,27,2023,12,43,51,869,3078,297,2899,6,-1452,161,
164,7,27,2023,12,43,51,879,3088,285,2939,-17,-1560,202,
165,7,27,2023,12,43,51,889,3183,173,2879,-81,-1714,304,
166,7,27,2023,12,43,51,899,3232,319,2981,-126,-1896,358,
167,7,27,2023,12,43,51,909,3389,398,3099,-180,-2085,439,
168,7,27,2023,12,43,51,919,3409,548,3082,-193,-2223,594,
169,7,27,2023,12,43,51,929,3337,661,3100,-199,-2422,830,
170,7,27,2023,12,43,51,939,3363,820,3286,-207,-2599,1060,
171,7,27,2023,12,43,51,959,4110,466,3394,-176,-2727,1430,
172,7,27,2023,12,43,51,969,3835,915,3655,-202,-2467,1605,
173,7,27,2023,12,43,51,979,4507,2013,4997,-326,-2035,1401,
174,7,27,2023,12,43,51,989,3641,3033,5630,-730,-962,781,
175,7,27,2023,12,43,51,999,1629,2510,4968,-1470,115,171,
176,7,27,2023,12,43,52,9,306,1290,4467,-1827,568,-209,
177,7,27,2023,12,43,52,19,-124,1040,4321,-1438,672,-513,
178,7,27,2023,12,43,52,29,-21,1486,4421,-942,750,-707,
179,7,27,2023,12,43,52,39,190,1796,4538,-838,1024,-772,
180,7,27,2023,12,43,52,49,278,1702,4551,-978,1487,-827,
181,7,27,2023,12,43,52,59,256,1570,4450,-1044,2021,-968,
182,7,27,2023,12,43,52,69,321,1537,4310,-1001,2505,-1183,
183,7,27,2023,12,43,52,79,607,1578,4246,-958,2910,-1439,
184,7,27,2023,12,43,52,89,892,1565,4238,-985,3284,-1713,
185,7,27,2023,12,43,52,99,1171,1580,4201,-1062,3629,-1982,
186,7,27,2023,12,43,52,109,1382,1600,4041,-1179,3936,-2209,
187,7,27,2023,12,43,52,119,1522,1611,3844,-1317,4129,-2392,
188,7,27,2023,12,43,52,129,1691,1581,3673,-1425,4180,-2559,
189,7,27,2023,12,43,52,139,1900,1680,3580,-1458,4127,-2734,
190,7,27,2023,12,43,52,149,2247,1778,3569,-1502,3987,-2909,
191,7,27,2023,12,43,52,159,2653,1830,3612,-1543,3840,-3109,
192,7,27,2023,12,43,52,169,2995,1916,3611,-1563,3728,-3344,
193,7,27,2023,12,43,52,179,3249,1996,3545,-1601,3639,-3582,
194,7,27,2023,12,43,52,189,3489,1931,3450,-1640,3534,-3781,
195,7,27,2023,12,43,52,199,3758,1809,3422,-1608,3454,-3966,
196,7,27,2023,12,43,52,209,4065,1772,3447,-1478,3452,-4107,
197,7,27,2023,12,43,52,219,4140,1655,3357,-1314,3524,-4178,
198,7,27,2023,12,43,52,229,4020,1459,3148,-1107,3587,-4185,
199,7,27,2023,12,43,52,239,3836,1305,2864,-843,3571,-4146,
200,7,27,2023,12,43,52,249,3721,1187,2629,-569,3433,-4059,
201,7,27,2023,12,43,52,259,3809,1156,2536,-353,3226,-3920,
202,7,27,2023,12,43,52,269,3956,1144,2556,-250,3046,-3718,
203,7,27,2023,12,43,52,279,4156,1023,2612,-229,2941,-3460,
204,7,27,2023,12,43,52,289,4179,884,2602,-179,2947,-3168,
205,7,27,2023,12,43,52,299,3983,678,2417,-48,2984,-2866,
206,7,27,2023,12,43,52,309,3485,-210,2041,238,2956,-2607,
207,7,27,2023,12,43,52,319,3530,-933,2013,858,2757,-2580,
208,7,27,2023,12,43,52,329,4337,-963,2002,1525,2512,-2574,
209,7,27,2023,12,43,52,339,4738,-761,1746,1856,2454,-2266,
210,7,27,2023,12,43,52,349,4546,-875,1386,1767,2504,-1680,
211,7,27,2023,12,43,52,359,4418,-1336,998,1453,2366,-1020,
212,7,27,2023,12,43,52,369,4346,-1642,494,1296,2015,-347,
213,7,27,2023,12,43,52,379,4826,-1563,282,1273,1565,392,
214,7,27,2023,12,43,52,389,5871,-1256,347,1182,1298,1237,
215,7,27,2023,12,43,52,399,6148,-1233,246,992,1434,2124,
216,7,27,2023,12,43,52,409,5351,-1609,-204,911,1600,2961,
217,7,27,2023,12,43,52,419,4435,-1486,-578,1090,1280,3635,
218,7,27,2023,12,43,52,429,3904,1434,-883,760,331,4172,
219,7,27,2023,12,43,52,439,1844,49,149,-2217,-1249,4726,
220,7,27,2023,12,43,52,449,-965,-692,5927,-3176,-2387,4186,
221,7,27,2023,12,43,52,459,-2672,3897,5724,-1428,-2377,2155,
222,7,27,2023,12,43,52,469,-1887,2503,1892,-1637,-4311,790,
223,7,27,2023,12,43,52,479,2820,-856,3277,-1897,-6801,336,
224,7,27,2023,12,43,52,489,6551,-3475,5775,-1549,-6896,408,
225,7,27,2023,12,43,52,499,7065,-3074,4972,-798,-5407,1271,
226,7,27,2023,12,43,52,509,8212,3010,5367,-1025,-4019,1660,
227,7,27,2023,12,43,52,519,5310,3311,5359,-1988,-2807,1058,
228,7,27,2023,12,43,52,529,4103,-1505,5023,-1863,-2063,491,
229,7,27,2023,12,43,52,539,4034,-1910,5368,-1108,-1296,688,
230,7,27,2023,12,43,52,549,1659,665,4246,-217,-552,383,
231,7,27,2023,12,43,52,559,2148,150,3412,-19,-783,88,
232,7,27,2023,12,43,52,569,2730,26,3960,154,-788,35,
233,7,27,2023,12,43,52,579,2781,677,3715,279,-477,-1,
234,7,27,2023,12,43,52,589,1830,824,3558,252,-337,-29,
235,7,27,2023,12,43,52,599,2111,710,3676,182,-452,24,
236,7,27,2023,12,43,52,609,2370,839,3675,133,-432,41,
237,7,27,2023,12,43,52,619,2498,748,3674,60,-377,114,
238,7,27,2023,12,43,52,629,1801,660,3741,41,-307,88,
239,7,27,2023,12,43,52,639,2455,426,3601,-28,-397,153,
240,7,27,2023,12,43,52,649,2380,457,3338,-19,-383,108,
241,7,27,2023,12,43,52,659,2218,441,3565,-38,-371,123,
242,7,27,2023,12,43,52,669,2201,448,3356,-34,-311,91,
243,7,27,2023,12,43,52,679,2211,367,3336,-35,-315,97,
244,7,27,2023,12,43,52,689,2549,272,3145,-22,-304,71,
245,7,27,2023,12,43,52,699,2216,326,3471,9,-246,43,
246,7,27,2023,12,43,52,709,2152,475,3276,38,-156,16,
247,7,27,2023,12,43,52,719,2169,433,3214,35,-120,12,
248,7,27,2023,12,43,52,729,2197,407,3334,53,-107,7,
249,7,27,2023,12,43,52,739,2670,237,3171,39,-133,17,
250,7,27,2023,12,43,52,749,1558,696,3660,88,-17,-33,
251,7,27,2023,12,43,52,759,2927,301,2926,33,-81,3,
252,7,27,2023,12,43,52,769,2122,445,3262,54,11,-18,
253,7,27,2023,12,43,52,779,2787,221,3014,25,-48,26,
254,7,27,2023,12,43,52,789,1025,747,4082,92,64,-58,
255,7,27,2023,12,43,52,799,2462,522,2989,52,30,-30,
256,7,27,2023,12,43,52,819,2499,307,3306,43,-20,-4,
257,7,27,2023,12,43,52,829,1304,774,3861,83,58,-42,
258,7,27,2023,12,43,52,839,2320,651,3151,22,31,26,
259,7,27,2023,12,43,52,849,3268,256,2967,-38,-76,87,
260,7,27,2023,12,43,52,859,1749,532,3678,12,-14,54,
261,7,27,2023,12,43,52,869,2234,526,3488,-9,-45,60,
262,7,27,2023,12,43,52,879,2571,494,3267,-24,-75,79,
263,7,27,2023,12,43,52,889,2297,381,3424,-22,-119,90,
264,7,27,2023,12,43,52,899,2182,435,3343,2,-158,54,
265,7,27,2023,12,43,52,909,2532,303,3232,-8,-193,64,
266,7,27,2023,12,43,52,919,2280,397,3461,29,-213,46,
267,7,27,2023,12,43,52,929,2536,373,3228,44,-254,34,
268,7,27,2023,12,43,52,939,2485,543,3233,39,-271,56,
269,7,27,2023,12,43,52,949,2674,399,3175,17,-312,81,
270,7,27,2023,12,43,52,959,1710,700,3797,36,-292,87,
271,7,27,2023,12,43,52,969,2989,462,2819,-1,-305,124,
272,7,27,2023,12,43,52,979,2637,332,3286,-14,-328,179,
273,7,27,2023,12,43,52,989,2434,406,3353,13,-314,126,
274,7,27,2023,12,43,52,999,1504,711,3636,22,-225,110,
275,7,27,2023,12,43,53,9,3447,190,2688,-34,-313,169,
276,7,27,2023,12,43,53,19,2554,201,3288,-3,-340,139,
277,7,27,2023,12,43,53,29,1837,482,3658,28,-311,73,
278,7,27,2023,12,43,53,39,2486,524,3126,25,-293,62,
279,7,27,2023,12,43,53,49,2949,215,3203,9,-383,114,
280,7,27,2023,12,43,53,59,2358,420,3179,58,-344,53,
281,7,27,2023,12,43,53,69,2424,458,3315,27,-404,87,
282,7,27,2023,12,43,53,79,2858,393,3112,28,-378,87,
283,7,27,2023,12,43,53,89,2175,394,3340,25,-385,97,
284,7,27,2023,12,43,53,99,2588,351,3140,31,-423,84,
285,7,27,2023,12,43,53,109,2687,315,3261,33,-476,98,
286,7,27,2023,12,43,53,119,2309,395,3222,84,-430,37,
287,7,27,2023,12,43,53,129,2474,452,3192,62,-489,76,
288,7,27,2023,12,43,53,139,2885,352,3017,59,-535,95,
289,7,27,2023,12,43,53,149,2370,480,3230,34,-542,128,
290,7,27,2023,12,43,53,159,2549,465,3132,29,-554,144,
291,7,27,2023,12,43,53,169,2884,347,2963,11,-589,176,
292,7,27,2023,12,43,53,179,2824,216,2997,9,-657,189,
293,7,27,2023,12,43,53,189,2305,335,3245,38,-676,143,
294,7,27,2023,12,43,53,199,2685,411,3145,29,-724,139,
295,7,27,2023,12,43,53,209,2789,432,3097,24,-758,133,
296,7,27,2023,12,43,53,219,2867,329,2999,12,-839,186,
297,7,27,2023,12,43,53,229,2187,494,3293,51,-813,156,
298,7,27,2023,12,43,53,239,2999,396,2979,28,-938,235,
299,7,27,2023,12,43,53,249,3476,-15,2706,50,-1068,205,
300,7,27,2023,12,43,53,259,1361,513,3965,87,-1135,162,
301,7,27,2023,12,43,53,269,2884,455,2809,73,-1108,141,
302,7,27,2023,12,43,53,279,3976,-48,2226,11,-1448,276,
303,7,27,2023,12,43,53,289,1760,550,3726,64,-1719,241,
304,7,27,2023,12,43,53,299,2054,791,3501,12,-1742,236,
305,7,27,2023,12,43,53,309,4584,284,2601,-81,-2027,376,
306,7,27,2023,12,43,53,319,2645,451,3644,-41,-2180,323,
307,7,27,2023,12,43,53,329,1867,588,3188,-60,-2344,371,
308,7,27,2023,12,43,53,339,2958,284,3083,-104,-2887,450,
309,7,27,2023,12,43,53,349,3395,168,3105,-101,-3185,441,
310,7,27,2023,12,43,53,359,2642,465,3185,-120,-3389,452,
311,7,27,2023,12,43,53,369,2900,327,3210,-147,-3718,445,
312,7,27,2023,12,43,53,379,3310,90,2588,-178,-4051,512,
313,7,27,2023,12,43,53,389,2815,79,2954,-177,-4616,507,
314,7,27,2023,12,43,53,399,2651,280,3213,-172,-5016,436,
315,7,27,2023,12,43,53,409,3886,261,2307,-304,-5413,636,
316,7,27,2023,12,43,53,419,2805,287,3312,-385,-5843,576,
317,7,27,2023,12,43,53,429,2487,507,2603,-375,-6025,528,
318,7,27,2023,12,43,53,439,4115,505,2205,-531,-6583,767,
319,7,27,2023,12,43,53,449,3235,613,3294,-568,-6841,692,
320,7,27,2023,12,43,53,459,3291,612,2143,-602,-7006,826,
321,7,27,2023,12,43,53,469,4159,495,2591,-735,-7407,973,
322,7,27,2023,12,43,53,479,4703,384,2720,-726,-7627,974,
323,7,27,2023,12,43,53,489,3310,846,2377,-563,-7828,1058,
324,7,27,2023,12,43,53,499,4693,482,2707,-414,-8342,1259,
325,7,27,2023,12,43,53,509,5461,84,2674,-225,-8662,1443,
326,7,27,2023,12,43,53,519,4805,44,2925,249,-8491,1303,
327,7,27,2023,12,43,53,529,4890,533,2768,516,-8497,1377,
328,7,27,2023,12,43,53,539,4867,-11,2733,762,-8521,1246,
329,7,27,2023,12,43,53,549,4927,35,2381,1322,-8358,1147,
330,7,27,2023,12,43,53,559,4758,267,1780,1730,-8331,1244,
331,7,27,2023,12,43,53,569,4901,131,2203,2128,-8347,1324,
332,7,27,2023,12,43,53,579,5116,388,2262,2666,-8067,1393,
333,7,27,2023,12,43,53,589,5019,623,2638,2891,-7621,1708,
334,7,27,2023,12,43,53,599,6028,742,5933,3166,-6149,2022,
335,7,27,2023,12,43,53,609,9571,2004,8482,3654,-3167,2432,
336,7,27,2023,12,43,53,619,4660,2947,6674,2916,864,2913,
337,7,27,2023,12,43,53,629,2850,2172,5254,1591,3517,3378,
338,7,27,2023,12,43,53,639,1473,1382,4045,900,4757,3502,
339,7,27,2023,12,43,53,649,489,1268,3171,913,5196,3340,
340,7,27,2023,12,43,53,659,392,1584,2924,1038,5165,2963,
341,7,27,2023,12,43,53,679,1357,2407,3114,396,5129,1758,
342,7,27,2023,12,43,53,689,1895,2516,3313,-252,5530,891,
343,7,27,2023,12,43,53,699,2177,2352,3404,-942,6188,-83,
344,7,27,2023,12,43,53,709,2254,1797,3322,-1444,6908,-1059,
345,7,27,2023,12,43,53,719,2288,1137,3118,-1529,7551,-1943,
346,7,27,2023,12,43,53,729,2270,739,2856,-1224,8008,-2654,
347,7,27,2023,12,43,53,739,2287,691,2624,-787,8205,-3102,
348,7,27,2023,12,43,53,749,2480,762,2537,-498,8172,-3264,
349,7,27,2023,12,43,53,759,2852,743,2621,-420,8035,-3217,
350,7,27,2023,12,43,53,769,3339,584,2833,-417,7952,-3072,
351,7,27,2023,12,43,53,779,3840,355,3028,-332,7992,-2920,
352,7,27,2023,12,43,53,789,4216,276,3124,-101,8145,-2777,
353,7,27,2023,12,43,53,799,4412,447,3172,155,8348,-2630,
354,7,27,2023,12,43,53,809,4410,573,3155,299,8513,-2473,
355,7,27,2023,12,43,53,819,4371,614,3149,390,8566,-2378,
356,7,27,2023,12,43,53,829,4416,629,3190,533,8488,-2374,
357,7,27,2023,12,43,53,839,4521,604,3271,746,8294,-2455,
358,7,27,2023,12,43,53,849,4610,612,3328,1028,8021,-2584,
359,7,27,2023,12,43,53,859,4743,730,3407,1319,7701,-2694,
360,7,27,2023,12,43,53,869,4894,779,3512,1521,7321,-2787,
361,7,27,2023,12,43,53,879,5267,781,3751,1673,6942,-2892,
362,7,27,2023,12,43,53,889,5840,840,4033,1792,6716,-3078,
363,7,27,2023,12,43,53,899,6192,915,4126,1800,6699,-3337,
364,7,27,2023,12,43,53,909,6221,923,3984,1630,6801,-3604,
365,7,27,2023,12,43,53,919,6163,689,3710,1284,6829,-3831,
366,7,27,2023,12,43,53,929,6249,296,3456,917,6751,-4028,
367,7,27,2023,12,43,53,939,6268,-65,3215,602,6681,-4235,
368,7,27,2023,12,43,53,949,6079,-392,2902,266,6604,-4410,
369,7,27,2023,12,43,53,959,5930,-527,2471,-142,6472,-4453,
370,7,27,2023,12,43,53,969,5770,-637,1943,-699,6216,-4279,
371,7,27,2023,12,43,53,979,5746,-761,1441,-1302,5831,-3905,
372,7,27,2023,12,43,53,989,5746,-915,946,-1778,5343,-3438,
373,7,27,2023,12,43,53,999,5784,-1103,447,-2007,4782,-2995,
374,7,27,2023,12,43,54,9,5972,-1330,-39,-1912,4192,-2528,
375,7,27,2023,12,43,54,19,5988,-1463,-711,-1457,3608,-1831,
376,7,27,2023,12,43,54,29,6236,-1970,-1244,-625,2954,-712,
377,7,27,2023,12,43,54,39,6349,-2564,-1521,727,2281,591,
378,7,27,2023,12,43,54,49,6118,-1806,-1633,2152,1580,1588,
379,7,27,2023,12,43,54,59,5960,-520,-1415,2537,777,2350,
380,7,27,2023,12,43,54,69,5959,19,-892,1747,-9,2970,
381,7,27,2023,12,43,54,79,5880,45,-390,686,-661,3356,
382,7,27,2023,12,43,54,89,5696,130,-28,7,-1199,3503,
383,7,27,2023,12,43,54,99,5334,1378,275,-271,-1714,3508,
384,7,27,2023,12,43,54,109,4562,2032,215,-1576,-2535,3571,
385,7,27,2023,12,43,54,119,-283,-499,5828,-2654,-3361,3117,
386,7,27,2023,12,43,54,129,-1626,2323,8069,-1424,-2628,1636,
387,7,27,2023,12,43,54,139,-2418,1478,2837,-1113,-3492,744,
388,7,27,2023,12,43,54,149,646,-643,2223,-1144,-5964,230,
389,7,27,2023,12,43,54,159,4307,-1541,5454,-750,-7148,-150,
390,7,27,2023,12,43,54,169,5458,-1587,4746,-221,-6447,270,
391,7,27,2023,12,43,54,179,4793,-1368,3907,-205,-5627,1200,
392,7,27,2023,12,43,54,189,5249,594,4687,126,-4996,1135,
393,7,27,2023,12,43,54,199,6311,2562,5447,37,-4172,424,
394,7,27,2023,12,43,54,209,6189,1423,4772,-988,-2985,502,
395,7,27,2023,12,43,54,219,4246,-331,4013,-1047,-2165,614,
396,7,27,2023,12,43,54,229,3626,-405,4976,-748,-1528,475,
397,7,27,2023,12,43,54,239,2589,-81,3567,-386,-896,357,
398,7,27,2023,12,43,54,249,2396,463,4432,-244,-837,225,
399,7,27,2023,12,43,54,259,2507,520,3160,11,-646,39,
400,7,27,2023,12,43,54,269,1969,386,4638,26,-646,110,
401,7,27,2023,12,43,54,279,1523,1131,2792,219,-222,-54,
402,7,27,2023,12,43,54,289,4047,-135,4012,83,-634,145,
403,7,27,2023,12,43,54,299,66,1189,4045,340,-99,-109,
404,7,27,2023,12,43,54,309,3322,99,3501,160,-549,78,
405,7,27,2023,12,43,54,319,1354,925,3907,274,-380,-38,
406,7,27,2023,12,43,54,329,2430,609,3537,157,-486,65,
407,7,27,2023,12,43,54,339,2295,714,3543,134,-499,98,
408,7,27,2023,12,43,54,349,2348,432,3395,82,-518,165,
409,7,27,2023,12,43,54,359,2631,381,3110,81,-531,161,
410,7,27,2023,12,43,54,369,2417,81,3448,70,-533,200,
411,7,27,2023,12,43,54,379,1925,643,3012,152,-408,99,
412,7,27,2023,12,43,54,389,3092,71,3241,68,-569,204,
413,7,27,2023,12,43,54,399,920,836,3980,190,-392,50,
414,7,27,2023,12,43,54,409,3852,23,2682,38,-595,213,
415,7,27,2023,12,43,54,419,993,744,4055,146,-411,86,
416,7,27,2023,12,43,54,429,2793,430,3053,44,-466,137,
417,7,27,2023,12,43,54,439,2239,697,3198,50,-410,138,
418,7,27,2023,12,43,54,449,2247,474,3281,19,-390,177,
419,7,27,2023,12,43,54,459,2116,455,3438,5,-339,196,
420,7,27,2023,12,43,54,469,2116,455,3438,5,-339,196,
421,7,27,2023,12,43,54,479,2116,455,3438,5,-339,196,
422,7,27,2023,12,43,54,489,2116,455,3438,5,-339,196,
423,7,27,2023,12,43,54,499,2361,456,3403,35,-353,176,
424,7,27,2023,12,43,54,509,2738,238,2930,21,-330,176,
425,7,27,2023,12,43,54,519,2619,253,3218,40,-386,191,
426,7,27,2023,12,43,54,539,2794,300,2951,56,-427,145,
427,7,27,2023,12,43,54,549,2197,492,3656,80,-455,134,
428,7,27,2023,12,43,54,559,3005,365,2884,58,-455,125,
429,7,27,2023,12,43,54,569,2457,349,3467,23,-597,190,
430,7,27,2023,12,43,54,579,1161,881,3500,103,-402,72,
431,7,27,2023,12,43,54,589,4361,-191,2305,-73,-746,316,
432,7,27,2023,12,43,54,599,743,761,4520,131,-634,77,
433,7,27,2023,12,43,54,609,3422,103,2324,-17,-719,265,
434,7,27,2023,12,43,54,619,1748,852,3926,38,-919,210,
435,7,27,2023,12,43,54,629,2777,208,3166,-42,-1016,309,
436,7,27,2023,12,43,54,639,2240,483,3345,-11,-1222,344,
437,7,27,2023,12,43,54,649,2997,163,3240,26,-1464,374,
438,7,27,2023,12,43,54,659,2880,206,2945,43,-1616,398,
439,7,27,2023,12,43,54,669,2669,166,3312,78,-1992,428,
440,7,27,2023,12,43,54,679,2685,362,3100,134,-2134,391,
441,7,27,2023,12,43,54,689,3151,325,3078,39,-2578,550,
442,7,27,2023,12,43,54,699,1981,606,3840,37,-2741,412,
443,7,27,2023,12,43,54,709,3576,483,2651,-143,-3191,685,
444,7,27,2023,12,43,54,719,1872,702,4063,-110,-3628,591,
445,7,27,2023,12,43,54,729,3089,569,2744,-318,-4010,859,
446,7,27,2023,12,43,54,739,2923,122,3591,-360,-4672,875,
447,7,27,2023,12,43,54,749,2607,337,3496,-361,-5024,937,
448,7,27,2023,12,43,54,759,2750,-175,2833,-420,-5553,955,
449,7,27,2023,12,43,54,769,2453,301,3381,-376,-6318,878,
450,7,27,2023,12,43,54,779,3398,73,2851,-519,-6984,925,
451,7,27,2023,12,43,54,789,3756,162,3273,-729,-7628,923,
452,7,27,2023,12,43,54,799,3721,338,2526,-851,-8068,901,
453,7,27,2023,12,43,54,809,2523,413,3277,-986,-8818,986,
454,7,27,2023,12,43,54,819,2987,1119,2825,-946,-9632,1125,
455,7,27,2023,12,43,54,829,3919,1350,3129,-1270,-10493,1528,
456,7,27,2023,12,43,54,839,4355,384,2386,-1330,-10989,1656,
457,7,27,2023,12,43,54,849,5667,942,4012,-1089,-11678,1885,
458,7,27,2023,12,43,54,859,3725,1422,2223,-454,-11701,2045,
459,7,27,2023,12,43,54,869,8956,-253,4863,-532,-12800,2708,
460,7,27,2023,12,43,54,879,4459,489,3481,479,-11732,2352,
461,7,27,2023,12,43,54,889,6916,-450,4379,846,-12187,2427,
462,7,27,2023,12,43,54,899,4920,-43,3675,1851,-11567,1952,
463,7,27,2023,12,43,54,909,4816,1075,3015,2355,-11502,2185,
464,7,27,2023,12,43,54,919,5497,519,3470,2708,-11201,2323,
465,7,27,2023,12,43,54,929,4999,1108,2514,3347,-10826,2603,
466,7,27,2023,12,43,54,939,5908,1268,4099,2969,-10536,3288,
467,7,27,2023,12,43,54,949,13947,1514,9582,3591,-7658,3071,
468,7,27,2023,12,43,54,959,9350,3895,9765,4093,-1607,2274,
469,7,27,2023,12,43,54,969,3290,4173,6906,2945,3573,1954,
470,7,27,2023,12,43,54,979,1571,2958,5252,1156,5502,2050,
471,7,27,2023,12,43,54,989,502,1916,3914,322,5960,2034,
472,7,27,2023,12,43,54,999,267,1378,3120,323,6123,1842,
473,7,27,2023,12,43,55,9,379,1243,2989,898,6254,1455,
474,7,27,2023,12,43,55,19,496,1802,2943,1519,6432,919,
475,7,27,2023,12,43,55,29,1075,2289,3042,1626,6676,367,
476,7,27,2023,12,43,55,39,1858,2410,3194,1297,7196,-240,
477,7,27,2023,12,43,55,49,2321,2266,3220,836,8004,-960,
478,7,27,2023,12,43,55,59,2448,1853,3118,418,8861,-1718,
479,7,27,2023,12,43,55,69,2537,1276,2899,233,9574,-2446,
480,7,27,2023,12,43,55,79,2776,835,2726,338,10091,-3090,
481,7,27,2023,12,43,55,89,3001,639,2617,597,10431,-3594,
482,7,27,2023,12,43,55,99,3162,510,2589,797,10584,-3945,
483,7,27,2023,12,43,55,109,3443,328,2666,862,10572,-4158,
484,7,27,2023,12,43,55,119,3773,111,2792,864,10445,-4278,
485,7,27,2023,12,43,55,129,4171,44,2889,870,10253,-4259,
486,7,27,2023,12,43,55,139,4540,120,3088,848,10065,-4086,
487,7,27,2023,12,43,55,149,4999,38,3420,802,9897,-3836,
488,7,27,2023,12,43,55,159,5457,-55,3703,878,9847,-3574,
489,7,27,2023,12,43,55,169,5612,-95,3797,1140,9872,-3310,
490,7,27,2023,12,43,55,179,5495,-43,3762,1529,9833,-3051,
491,7,27,2023,12,43,55,189,5293,38,3732,1955,9615,-2826,
492,7,27,2023,12,43,55,199,5260,149,3778,2369,9207,-2679,
493,7,27,2023,12,43,55,209,5534,475,3934,2703,8692,-2674,
494,7,27,2023,12,43,55,219,6051,1018,4152,2805,8190,-2837,
495,7,27,2023,12,43,55,229,6896,1580,4358,2563,7790,-3215,
496,7,27,2023,12,43,55,239,7541,1910,4243,1953,7606,-3852,
497,7,27,2023,12,43,55,249,7476,1451,3755,1071,7513,-4735,
498,7,27,2023,12,43,55,259,7459,455,3278,290,7246,-5717,
499,7,27,2023,12,43,55,269,7641,-404,2866,-183,6942,-6533,
500,7,27,2023,12,43,55,279,7767,-911,2453,-593,6737,-6983,
501,7,27,2023,12,43,55,289,7616,-1324,1613,-1189,6564,-6933,
502,7,27,2023,12,43,55,299,6544,-1842,-4,-1805,6048,-6350,
503,7,27,2023,12,43,55,309,6174,-2008,-1131,-2183,4692,-5184,
504,7,27,2023,12,43,55,319,7357,-1548,-1400,-2446,3098,-3880,
505,7,27,2023,12,43,55,329,8662,-1251,-1509,-2650,2136,-2889,
506,7,27,2023,12,43,55,339,8949,-1558,-2110,-2466,1826,-2000,
507,7,27,2023,12,43,55,349,8610,-2656,-2705,-1390,1598,-935,
508,7,27,2023,12,43,55,359,7936,-2673,-2925,525,1107,7,
509,7,27,2023,12,43,55,369,7664,-1260,-2657,1879,281,767,
510,7,27,2023,12,43,55,379,7805,-398,-2090,1682,-577,1578,
511,7,27,2023,12,43,55,399,7108,-46,-1174,217,-1628,3129,
512,7,27,2023,12,43,55,409,6427,2071,-979,-273,-2196,4021,
513,7,27,2023,12,43,55,419,5270,1834,207,-2521,-3156,4897,
514,7,27,2023,12,43,55,429,1268,-1399,6458,-3775,-3686,4337,
515,7,27,2023,12,43,55,439,-1404,159,6833,-2093,-2750,2115,
516,7,27,2023,12,43,55,449,-1583,-518,3880,-1055,-4242,130,
517,7,27,2023,12,43,55,459,1644,-2516,2989,-719,-6582,-618,
518,7,27,2023,12,43,55,469,5807,-2748,5202,-452,-7283,157,
519,7,27,2023,12,43,55,479,6829,-1471,5244,410,-6517,1178,
520,7,27,2023,12,43,55,489,9961,3851,5379,886,-4641,956,
521,7,27,2023,12,43,55,499,6316,3953,4066,-765,-2767,565,
522,7,27,2023,12,43,55,509,2601,-782,5072,-1686,-2153,482,
523,7,27,2023,12,43,55,519,3712,-1636,5746,-1113,-1536,655,
524,7,27,2023,12,43,55,529,3771,651,3154,-455,-643,652,
525,7,27,2023,12,43,55,539,2604,295,3522,-306,-651,214,
526,7,27,2023,12,43,55,549,2392,-80,3352,-105,-666,126,
527,7,27,2023,12,43,55,559,2767,855,3935,76,-439,160,
528,7,27,2023,12,43,55,569,2718,409,3829,152,-275,123,
529,7,27,2023,12,43,55,579,1595,437,3620,210,-244,94,
530,7,27,2023,12,43,55,589,2141,-1,4542,225,-568,118,
531,7,27,2023,12,43,55,599,1646,1129,2774,375,-373,-70,
532,7,27,2023,12,43,55,609,3145,140,5093,185,-730,147,
533,7,27,2023,12,43,55,619,2034,762,2850,303,-391,-94,
534,7,27,2023,12,43,55,629,1379,768,3953,172,-578,78,
535,7,27,2023,12,43,55,639,2704,507,3313,169,-687,70,
536,7,27,2023,12,43,55,649,2167,622,3160,148,-676,122,
537,7,27,2023,12,43,55,659,2879,403,3015,116,-741,167,
538,7,27,2023,12,43,55,669,2476,244,3689,62,-750,216,
539,7,27,2023,12,43,55,679,2765,397,2531,87,-657,184,
540,7,27,2023,12,43,55,689,1415,507,4122,64,-690,230,
541,7,27,2023,12,43,55,699,3618,55,2659,39,-709,191,
542,7,27,2023,12,43,55,709,795,763,3733,154,-524,96,
543,7,27,2023,12,43,55,719,3119,335,3235,73,-684,185,
544,7,27,2023,12,43,55,729,1984,470,3457,117,-627,119,
545,7,27,2023,12,43,55,739,2010,505,3323,121,-637,147,
546,7,27,2023,12,43,55,749,2396,429,3409,88,-668,188,
547,7,27,2023,12,43,55,759,2830,272,2974,97,-648,174,
548,7,27,2023,12,43,55,769,2302,286,3229,111,-697,151,
549,7,27,2023,12,43,55,779,3211,-12,2718,143,-808,116,
550,7,27,2023,12,43,55,789,2262,432,3426,200,-842,92,
551,7,27,2023,12,43,55,799,2850,366,2901,189,-889,146,
552,7,27,2023,12,43,55,809,2100,551,3521,160,-937,142,
553,7,27,2023,12,43,55,819,3287,-57,2763,119,-1076,214,
554,7,27,2023,12,43,55,829,1043,634,3852,224,-935,46,
555,7,27,2023,12,43,55,839,4012,331,2591,136,-1290,274,
556,7,27,2023,12,43,55,849,1502,583,3617,236,-1088,-6,
557,7,27,2023,12,43,55,859,2544,461,3046,93,-1335,272,
558,7,27,2023,12,43,55,869,2815,688,3312,124,-1392,191,
559,7,27,2023,12,43,55,879,2898,422,2948,20,-1444,346,
560,7,27,2023,12,43,55,889,3011,374,2873,55,-1666,433,
561,7,27,2023,12,43,55,899,2968,261,3165,39,-2022,515,
562,7,27,2023,12,43,55,909,2956,123,2690,55,-2213,470,
563,7,27,2023,12,43,55,919,2035,616,3872,30,-2692,568,
564,7,27,2023,12,43,55,929,3862,268,2383,-6,-2905,554,
565,7,27,2023,12,43,55,939,1765,501,3807,-93,-3267,576,
566,7,27,2023,12,43,55,949,3220,654,2846,-129,-3612,678,
567,7,27,2023,12,43,55,959,2797,53,3422,-268,-4054,658,
568,7,27,2023,12,43,55,969,2631,541,3438,-276,-4398,629,
569,7,27,2023,12,43,55,979,2560,438,3454,-396,-4855,666,
570,7,27,2023,12,43,55,989,3597,350,2762,-438,-5489,756,
571,7,27,2023,12,43,55,999,3319,-136,2605,-503,-6176,815,
572,7,27,2023,12,43,56,9,3162,-22,2609,-598,-7015,990,
573,7,27,2023,12,43,56,19,2557,-18,2716,-719,-7768,943,
574,7,27,2023,12,43,56,29,2790,405,3545,-787,-8548,843,
575,7,27,2023,12,43,56,39,4505,156,2025,-931,-9164,879,
576,7,27,2023,12,43,56,49,2706,818,3454,-990,-9652,710,
577,7,27,2023,12,43,56,59,5473,993,3604,-1166,-10751,940,
578,7,27,2023,12,43,56,69,2057,875,2349,-1024,-11310,949,
579,7,27,2023,12,43,56,79,5857,1309,4514,-743,-12507,1235,
580,7,27,2023,12,43,56,89,5498,1548,2773,-539,-12769,1667,
581,7,27,2023,12,43,56,99,7762,722,3965,-187,-13337,1963,
582,7,27,2023,12,43,56,109,6905,331,3833,516,-13107,2279,
583,7,27,2023,12,43,56,119,7544,-775,4548,1217,-13101,2259,
584,7,27,2023,12,43,56,129,5875,433,4913,2219,-13064,2009,
585,7,27,2023,12,43,56,139,6237,1328,4405,2907,-12174,1912,
586,7,27,2023,12,43,56,149,5729,1684,4777,3479,-11621,2471,
587,7,27,2023,12,43,56,159,5930,1819,3773,3455,-11369,3072,
588,7,27,2023,12,43,56,169,10717,760,7629,3487,-9484,3377,
589,7,27,2023,12,43,56,179,14670,3596,11953,5065,-4912,2695,
590,7,27,2023,12,43,56,189,5577,4538,8631,4472,1792,2294,
591,7,27,2023,12,43,56,199,2361,3594,6618,2482,4841,2503,
592,7,27,2023,12,43,56,209,1042,2346,5019,1264,5704,2593,
593,7,27,2023,12,43,56,219,419,1836,3882,881,5867,2434,
594,7,27,2023,12,43,56,229,517,1518,3595,1015,5971,2047,
595,7,27,2023,12,43,56,239,607,1817,3564,1384,6159,1444,
596,7,27,2023,12,43,56,259,1403,2512,3646,1086,6926,49,
597,7,27,2023,12,43,56,269,1752,2430,3624,486,7630,-719,
598,7,27,2023,12,43,56,279,2093,1936,3584,-66,8417,-1515,
599,7,27,2023,12,43,56,289,2348,1258,3497,-303,9231,-2301,
600,7,27,2023,12,43,56,299,2560,612,3350,-116,9973,-2998,
601,7,27,2023,12,43,56,309,2739,278,3145,373,10577,-3514,
602,7,27,2023,12,43,56,319,2740,229,2899,881,10967,-3780,
603,7,27,2023,12,43,56,329,2868,246,2821,1168,11060,-3805,
604,7,27,2023,12,43,56,339,3320,128,3001,1221,10968,-3691,
605,7,27,2023,12,43,56,349,4002,-71,3312,1218,10901,-3557,
606,7,27,2023,12,43,56,359,4704,-182,3575,1270,10975,-3435,
607,7,27,2023,12,43,56,369,5212,-55,3691,1348,11183,-3304,
608,7,27,2023,12,43,56,379,5333,143,3712,1350,11409,-3128,
609,7,27,2023,12,43,56,389,5272,99,3688,1331,11470,-2991,
610,7,27,2023,12,43,56,399,5270,55,3778,1446,11306,-2977,
611,7,27,2023,12,43,56,409,5530,102,4029,1672,10995,-3058,
612,7,27,2023,12,43,56,419,5843,277,4232,1929,10679,-3185,
613,7,27,2023,12,43,56,429,5977,718,4212,2109,10368,-3297,
614,7,27,2023,12,43,56,439,6204,1276,4161,2052,9912,-3387,
615,7,27,2023,12,43,56,449,6971,1412,4267,1761,9272,-3629,
616,7,27,2023,12,43,56,459,8034,1303,4385,1522,8764,-4297,
617,7,27,2023,12,43,56,469,8608,1179,4104,1329,8551,-5449,
618,7,27,2023,12,43,56,479,8695,559,3381,865,8342,-6714,
619,7,27,2023,12,43,56,489,8750,-632,2496,198,7948,-7575,
620,7,27,2023,12,43,56,499,9078,-1522,1617,-400,7503,-7795,
621,7,27,2023,12,43,56,509,9360,-1747,527,-1065,7151,-7265,
622,7,27,2023,12,43,56,519,8977,-1879,-903,-1945,6717,-6047,
623,7,27,2023,12,43,56,529,8137,-2124,-2776,-2645,5744,-4455,
624,7,27,2023,12,43,56,539,8603,-1870,-3965,-2711,4078,-2705,
625,7,27,2023,12,43,56,549,10606,-1276,-4249,-2238,2533,-1054,
626,7,27,2023,12,43,56,559,11480,-1848,-4584,-1180,1712,261,
627,7,27,2023,12,43,56,569,10336,-2135,-5106,641,1048,885,
628,7,27,2023,12,43,56,579,9427,-720,-4854,2013,-243,1137,
629,7,27,2023,12,43,56,589,9581,531,-3624,1679,-1756,1608,
630,7,27,2023,12,43,56,599,9190,1263,-3186,234,-2904,2410,
631,7,27,2023,12,43,56,609,7006,1153,-2741,-1760,-4262,3490,
632,7,27,2023,12,43,56,619,4398,-140,1600,-3318,-5944,3819,
633,7,27,2023,12,43,56,629,2935,-768,7411,-3078,-6431,2265,
634,7,27,2023,12,43,56,639,1921,-1405,6814,-1607,-6443,11,
635,7,27,2023,12,43,56,649,3572,-4940,3899,-1130,-7462,-25,
636,7,27,2023,12,43,56,659,6554,-5609,7249,-319,-8067,1158,
637,7,27,2023,12,43,56,669,9593,1431,6937,1556,-6401,1108,
638,7,27,2023,12,43,56,679,9872,6861,4198,7,-3886,946,
639,7,27,2023,12,43,56,689,2944,2583,3723,-1857,-2775,661,
640,7,27,2023,12,43,56,699,4293,-2131,4976,-2066,-2000,708,
641,7,27,2023,12,43,56,709,6271,-735,3553,-1101,-541,996,
642,7,27,2023,12,43,56,719,2844,607,4120,-532,66,430,
643,7,27,2023,12,43,56,729,1205,133,4366,-241,-166,140,
644,7,27,2023,12,43,56,739,2255,419,3298,18,-207,143,
645,7,27,2023,12,43,56,749,1972,121,5295,131,-295,55,
646,7,27,2023,12,43,56,759,2219,277,4297,269,-428,-26,
647,7,27,2023,12,43,56,769,815,771,3840,385,-602,-103,
648,7,27,2023,12,43,56,779,2110,287,4019,356,-885,-73,
649,7,27,2023,12,43,56,789,2435,530,3305,413,-989,-63,
650,7,27,2023,12,43,56,799,2683,507,3190,415,-1122,-6,
651,7,27,2023,12,43,56,809,2715,97,3608,359,-1245,41,
652,7,27,2023,12,43,56,819,2078,795,3152,376,-1178,35,
653,7,27,2023,12,43,56,829,2145,1121,3341,272,-1242,145,
654,7,27,2023,12,43,56,839,2530,315,4230,147,-1336,263,
655,7,27,2023,12,43,56,849,2528,588,2122,189,-1007,199,
656,7,27,2023,12,43,56,859,705,701,4042,135,-1106,245,
657,7,27,2023,12,43,56,869,3338,152,3496,53,-1307,192,
658,7,27,2023,12,43,56,879,1576,826,3284,156,-1177,109,
659,7,27,2023,12,43,56,889,2775,203,3011,108,-1477,218,
660,7,27,2023,12,43,56,899,3173,34,2935,177,-1716,198,
661,7,27,2023,12,43,56,909,2318,250,3275,215,-1892,225,
662,7,27,2023,12,43,56,919,2514,304,3672,233,-2206,317,
663,7,27,2023,12,43,56,929,2835,194,2847,337,-2276,269,
664,7,27,2023,12,43,56,939,1788,162,3324,362,-2302,230,
665,7,27,2023,12,43,56,949,3139,427,2881,359,-2445,276,
666,7,27,2023,12,43,56,959,2227,498,3388,292,-2395,185,
667,7,27,2023,12,43,56,969,2379,718,3089,222,-2399,260,
668,7,27,2023,12,43,56,979,3225,509,2568,153,-2536,341,
669,7,27,2023,12,43,56,989,3357,296,2397,101,-2677,423,
670,7,27,2023,12,43,56,999,2672,498,2850,45,-2924,542,
671,7,27,2023,12,43,57,9,2774,388,2839,-13,-3109,532,
672,7,27,2023,12,43,57,19,3311,236,2429,-103,-3297,570,
673,7,27,2023,12,43,57,29,2155,624,4044,-163,-3598,631,
674,7,27,2023,12,43,57,39,3399,84,2296,-209,-3801,601,
675,7,27,2023,12,43,57,49,2397,53,3394,-258,-4215,455,
676,7,27,2023,12,43,57,59,2609,1015,3556,-238,-4761,596,
677,7,27,2023,12,43,57,69,2718,629,2764,-357,-5246,620,
678,7,27,2023,12,43,57,79,4061,464,2288,-488,-6030,867,
679,7,27,2023,12,43,57,89,3587,459,3106,-588,-6815,1111,
680,7,27,2023,12,43,57,99,3184,250,2681,-672,-7482,1170,
681,7,27,2023,12,43,57,119,3005,164,3643,-930,-9100,1144,
682,7,27,2023,12,43,57,129,3679,-425,1975,-993,-9818,997,
683,7,27,2023,12,43,57,139,3543,59,2662,-947,-10727,707,
684,7,27,2023,12,43,57,149,4042,43,2776,-938,-11687,485,
685,7,27,2023,12,43,57,159,3860,195,2537,-666,-12721,120,
686,7,27,2023,12,43,57,169,5379,812,2073,-409,-13803,155,
687,7,27,2023,12,43,57,179,7735,1039,2770,-449,-14859,470,
688,7,27,2023,12,43,57,189,7921,1766,4856,251,-15013,685,
689,7,27,2023,12,43,57,199,6486,1890,4960,688,-14698,1281,
690,7,27,2023,12,43,57,209,9616,333,6539,718,-14736,1872,
691,7,27,2023,12,43,57,219,8404,779,5650,1375,-14622,2219,
692,7,27,2023,12,43,57,229,8522,8,6538,2211,-14053,1988,
693,7,27,2023,12,43,57,239,7851,1941,6058,3246,-13439,2218,
694,7,27,2023,12,43,57,249,8958,756,7229,3024,-12680,2610,
695,7,27,2023,12,43,57,259,17529,183,10515,4654,-9266,2725,
696,7,27,2023,12,43,57,269,13481,5464,12228,5317,-3662,2956,
697,7,27,2023,12,43,57,279,7521,4979,9243,2635,2742,3643,
698,7,27,2023,12,43,57,289,4342,2454,6969,-29,5419,4287,
699,7,27,2023,12,43,57,299,2230,1153,5029,-671,6351,4278,
700,7,27,2023,12,43,57,309,971,760,3728,-197,6541,3858,
701,7,27,2023,12,43,57,319,1063,1313,3217,331,6443,3324,
702,7,27,2023,12,43,57,329,1599,2378,3116,248,6585,2760,
703,7,27,2023,12,43,57,339,2214,2922,3319,-662,7202,2199,
704,7,27,2023,12,43,57,349,2311,2358,3335,-1854,8306,1542,
705,7,27,2023,12,43,57,359,1981,1048,3002,-2385,9614,812,
706,7,27,2023,12,43,57,369,1393,30,2430,-1710,10786,131,
707,7,27,2023,12,43,57,379,957,12,1934,-262,11501,-384,
708,7,27,2023,12,43,57,389,1424,700,1826,1011,11781,-655,
709,7,27,2023,12,43,57,399,2339,1412,1963,1539,11956,-767,
710,7,27,2023,12,43,57,409,3122,1736,2210,1404,12224,-849,
711,7,27,2023,12,43,57,419,3501,1512,2561,1110,12544,-1117,
712,7,27,2023,12,43,57,429,3783,1276,2691,1133,12863,-1636,
713,7,27,2023,12,43,57,439,3931,1739,2694,1472,13115,-2293,
714,7,27,2023,12,43,57,449,3937,2183,2995,1586,13134,-3015,
715,7,27,2023,12,43,57,459,4573,2123,3603,1452,12997,-3848,
716,7,27,2023,12,43,57,469,5306,1746,4355,1433,13064,-4820,
717,7,27,2023,12,43,57,479,5724,1037,5081,1636,13307,-5854,
718,7,27,2023,12,43,57,489,6443,326,5411,2053,13505,-6728,
719,7,27,2023,12,43,57,499,7251,151,5140,2534,13518,-7255,
720,7,27,2023,12,43,57,509,8073,723,4758,2707,13270,-7310,
721,7,27,2023,12,43,57,519,8947,1178,4526,2168,12796,-6956,
722,7,27,2023,12,43,57,529,9748,-298,4116,1352,12194,-6517,
723,7,27,2023,12,43,57,539,11114,-2328,2822,1496,11510,-6301,
724,7,27,2023,12,43,57,549,12617,-2535,380,2708,10808,-5757,
725,7,27,2023,12,43,57,559,13092,-2164,-2336,3630,9857,-4385,
726,7,27,2023,12,43,57,569,13142,-2491,-4539,3673,8435,-2590,
727,7,27,2023,12,43,57,579,13109,-3062,-6910,3528,6785,-924,
728,7,27,2023,12,43,57,589,12922,-2306,-9318,3403,4824,380,
729,7,27,2023,12,43,57,599,12259,-1301,-10411,2615,2442,1611,
730,7,27,2023,12,43,57,609,11585,-1094,-9675,1396,85,2366,
731,7,27,2023,12,43,57,619,10389,-1276,-8366,794,-1662,2353,
732,7,27,2023,12,43,57,629,8571,-323,-7277,998,-3034,1862,
733,7,27,2023,12,43,57,639,7341,2772,-9278,104,-5058,1789,
734,7,27,2023,12,43,57,649,6392,-3669,-13650,-4714,-10077,3609,
735,7,27,2023,12,43,57,659,20401,-7266,13121,-6814,-13907,5195,
736,7,27,2023,12,43,57,669,18080,-5790,16096,-5594,-4052,4673,
737,7,27,2023,12,43,57,679,-3951,-2448,5937,-1174,-400,3102,
738,7,27,2023,12,43,57,689,4796,-1367,9416,-907,-1806,1906,
739,7,27,2023,12,43,57,699,8521,885,5704,-461,-1376,814,
740,7,27,2023,12,43,57,709,2461,2739,2792,-485,-1579,410,
741,7,27,2023,12,43,57,719,2715,-30,1374,-526,-1679,1045,
742,7,27,2023,12,43,57,729,110,-1569,3021,-239,-1671,944,
743,7,27,2023,12,43,57,739,3891,-1049,4964,-110,-1567,365,
744,7,27,2023,12,43,57,749,4392,1680,4684,-68,-575,2,
745,7,27,2023,12,43,57,759,1023,1850,5255,-172,-583,193,
746,7,27,2023,12,43,57,769,2499,-119,3876,-242,-1365,410,
747,7,27,2023,12,43,57,779,3475,-597,3144,-149,-2110,313,
748,7,27,2023,12,43,57,789,2377,526,3772,-37,-2331,182,
749,7,27,2023,12,43,57,799,2373,547,4762,-67,-2728,326,
750,7,27,2023,12,43,57,809,3271,210,4044,4,-3364,396,
751,7,27,2023,12,43,57,819,1020,611,5043,183,-4492,499,
752,7,27,2023,12,43,57,829,2474,342,5024,202,-5911,643,
753,7,27,2023,12,43,57,839,1513,680,4984,159,-7206,666,
754,7,27,2023,12,43,57,849,1917,690,4641,-174,-8400,793,
755,7,27,2023,12,43,57,859,2658,87,3988,-413,-9655,915,
756,7,27,2023,12,43,57,869,2877,442,3075,-551,-10881,1140,
757,7,27,2023,12,43,57,879,3136,44,3335,-1143,-12171,1406,
758,7,27,2023,12,43,57,889,3251,-563,3502,-1287,-13089,1165,
759,7,27,2023,12,43,57,899,3087,124,2326,-825,-13662,707,
760,7,27,2023,12,43,57,909,5834,-705,4014,-732,-14197,304,
761,7,27,2023,12,43,57,919,5064,-681,1520,-117,-14081,-255,
762,7,27,2023,12,43,57,929,4493,191,1371,767,-13479,-903,
763,7,27,2023,12,43,57,939,7296,306,3762,1109,-12760,-782,
764,7,27,2023,12,43,57,949,3639,717,999,1509,-10927,-580,
765,7,27,2023,12,43,57,959,6567,-184,661,1743,-10276,-274,
766,7,27,2023,12,43,57,979,5016,147,458,3214,-8243,-152,
767,7,27,2023,12,43,57,989,6544,-645,1416,3461,-7389,107,
768,7,27,2023,12,43,57,999,6885,-982,1493,3885,-6556,815,
769,7,27,2023,12,43,58,9,9846,1803,4016,4185,-6935,1750,
770,7,27,2023,12,43,58,19,7610,2395,5100,2496,-5195,2364,
771,7,27,2023,12,43,58,29,5639,1292,5384,391,-3871,2740,
772,7,27,2023,12,43,58,39,4470,366,5505,-692,-3623,2980,
773,7,27,2023,12,43,58,49,4254,227,5715,-770,-3601,3204,
774,7,27,2023,12,43,58,59,3933,558,5856,-430,-3520,3465,
775,7,27,2023,12,43,58,69,4009,1200,5956,-126,-3357,3819,
776,7,27,2023,12,43,58,79,4195,1996,6245,-147,-3056,4154,
777,7,27,2023,12,43,58,89,4311,2720,6721,-620,-2581,4400,
778,7,27,2023,12,43,58,99,4178,3144,7031,-1380,-1721,4467,
779,7,27,2023,12,43,58,109,3823,3179,6907,-2131,-413,4260,
780,7,27,2023,12,43,58,119,3236,2882,6402,-2598,1211,3855,
781,7,27,2023,12,43,58,129,2171,2674,5605,-2616,2838,3348,
782,7,27,2023,12,43,58,139,1373,2502,4701,-2311,4201,2870,
783,7,27,2023,12,43,58,149,1080,2167,4032,-1786,5375,2500,
784,7,27,2023,12,43,58,159,960,1938,3549,-1019,6566,2135,
785,7,27,2023,12,43,58,169,890,2003,3119,-180,7816,1768,
786,7,27,2023,12,43,58,179,1097,2012,2841,530,8979,1489,
787,7,27,2023,12,43,58,189,1573,1942,2700,1186,10078,1244,
788,7,27,2023,12,43,58,199,2327,1988,2594,1812,11149,1002,
789,7,27,2023,12,43,58,209,2712,2215,2326,2355,12190,763,
790,7,27,2023,12,43,58,219,2556,2384,2068,2688,12925,407,
791,7,27,2023,12,43,58,229,2752,2076,2156,2844,13084,-206,
792,7,27,2023,12,43,58,239,3760,1829,2570,3194,12959,-1131,
793,7,27,2023,12,43,58,249,4610,2180,3172,3629,12947,-2238,
794,7,27,2023,12,43,58,259,5038,2055,3948,3688,12989,-3394,
795,7,27,2023,12,43,58,269,5829,1158,4788,3641,13005,-4529,
796,7,27,2023,12,43,58,279,6939,548,5351,3946,13151,-5613,
797,7,27,2023,12,43,58,289,7649,577,5631,4253,13320,-6559,
798,7,27,2023,12,43,58,299,8193,793,5592,4133,13382,-7273,
799,7,27,2023,12,43,58,309,8769,658,5495,3501,13217,-7800,
800,7,27,2023,12,43,58,319,9427,32,5198,2770,12865,-8168,
801,7,27,2023,12,43,58,329,9913,-1380,4285,2411,12373,-8439,
802,7,27,2023,12,43,58,339,10479,-3102,2740,2671,11600,-8700,
803,7,27,2023,12,43,58,349,11587,-3673,703,3365,10529,-8666,
804,7,27,2023,12,43,58,359,12957,-3153,-1416,3858,9326,-7720,
805,7,27,2023,12,43,58,369,13313,-2828,-3799,3615,8253,-5686,
806,7,27,2023,12,43,58,379,12730,-3371,-6366,3036,7147,-3091,
807,7,27,2023,12,43,58,389,12297,-3637,-8410,2655,5591,-451,
808,7,27,2023,12,43,58,399,11627,-2974,-9681,2452,3873,1686,
809,7,27,2023,12,43,58,409,10887,-1375,-9670,1697,2055,2768,
810,7,27,2023,12,43,58,419,9975,-378,-8829,345,235,2929,
811,7,27,2023,12,43,58,429,8176,469,-8949,-815,-1713,2601,
812,7,27,2023,12,43,58,439,7633,-402,-13325,-2929,-5343,3259,
813,7,27,2023,12,43,58,449,5838,-4501,-4801,-6398,-11013,5384,
814,7,27,2023,12,43,58,459,24087,-3051,21925,-6394,-9916,5530,
815,7,27,2023,12,43,58,469,7017,-6869,6648,-4142,-1068,4027,
816,7,27,2023,12,43,58,479,1396,-1283,8690,-2587,-1754,3969,
817,7,27,2023,12,43,58,489,6123,-1096,8742,-1307,-1623,1833,
818,7,27,2023,12,43,58,499,5721,823,4821,-420,-896,867,
819,7,27,2023,12,43,58,509,1092,2645,3084,-377,-1414,1004,
820,7,27,2023,12,43,58,519,3339,-1250,1806,-508,-1680,1416,
821,7,27,2023,12,43,58,529,1505,-777,3472,-196,-1464,1006,
822,7,27,2023,12,43,58,539,3748,-48,4697,-95,-961,490,
823,7,27,2023,12,43,58,549,4351,1534,5264,-93,-725,326,
824,7,27,2023,12,43,58,559,4351,1534,5264,-93,-725,326,
825,7,27,2023,12,43,58,569,2616,1003,4270,-137,-1227,553,
826,7,27,2023,12,43,58,579,2232,-176,4068,-77,-1931,714,
827,7,27,2023,12,43,58,589,2678,-41,4227,55,-2293,627,
828,7,27,2023,12,43,58,599,2897,508,4311,67,-2655,569,
829,7,27,2023,12,43,58,609,1449,1023,4817,-7,-3245,581,
830,7,27,2023,12,43,58,619,1511,588,6251,58,-4823,863,
831,7,27,2023,12,43,58,629,3019,871,4841,232,-6179,891,
832,7,27,2023,12,43,58,639,763,909,4879,-5,-7583,1081,
833,7,27,2023,12,43,58,649,3361,-124,3983,-451,-8988,1257,
834,7,27,2023,12,43,58,659,2600,141,3418,-574,-10159,1325,
835,7,27,2023,12,43,58,669,2057,85,3215,-873,-11247,1421,
836,7,27,2023,12,43,58,679,3796,-256,3578,-1197,-12241,1589,
837,7,27,2023,12,43,58,689,3731,-462,3271,-1241,-12682,1280,
838,7,27,2023,12,43,58,699,2295,-333,2111,-1019,-12564,852,
839,7,27,2023,12,43,58,709,5678,-1180,2623,-428,-12771,628,
840,7,27,2023,12,43,58,719,3953,370,1609,619,-11999,278,
841,7,27,2023,12,43,58,729,6788,-105,1941,976,-11234,-118,
842,7,27,2023,12,43,58,739,5500,-244,713,1464,-9625,-204,
843,7,27,2023,12,43,58,749,4960,152,667,2315,-8573,-163,
844,7,27,2023,12,43,58,759,5327,1017,904,2910,-7694,247,
845,7,27,2023,12,43,58,769,4560,489,894,2884,-6939,942,
846,7,27,2023,12,43,58,779,4337,77,1038,2915,-6602,1609,
847,7,27,2023,12,43,58,789,4246,-294,1249,2896,-6384,2439,
848,7,27,2023,12,43,58,799,7772,75,3347,2966,-6913,3478,
849,7,27,2023,12,43,58,809,6952,1381,4870,2534,-5605,3859,
850,7,27,2023,12,43,58,819,4998,1386,4835,1525,-3572,3820,
851,7,27,2023,12,43,58,839,2936,599,4452,274,-2491,3733,
852,7,27,2023,12,43,58,849,2681,1076,4584,184,-2726,3596,
853,7,27,2023,12,43,58,859,3102,1813,4966,-113,-3167,3547,
854,7,27,2023,12,43,58,869,3901,2665,5729,-845,-3456,3497,
855,7,27,2023,12,43,58,879,4758,3361,6702,-2051,-3279,3315,
856,7,27,2023,12,43,58,889,5125,3707,7460,-3525,-2546,2876,
857,7,27,2023,12,43,58,899,4788,3728,7517,-4943,-1332,2215,
858,7,27,2023,12,43,58,909,3905,2958,6908,-5953,39,1552,
859,7,27,2023,12,43,58,919,3120,1707,6202,-5993,1325,978,
860,7,27,2023,12,43,58,929,2531,894,5542,-4895,2527,440,
861,7,27,2023,12,43,58,939,2171,889,4910,-3218,3722,88,
862,7,27,2023,12,43,58,949,1693,1440,4285,-1733,4902,85,
863,7,27,2023,12,43,58,959,1332,1922,3720,-885,5931,386,
864,7,27,2023,12,43,58,969,1468,2060,3358,-537,6820,795,
865,7,27,2023,12,43,58,979,2116,1852,3287,-235,7724,1094,
866,7,27,2023,12,43,58,989,2827,1661,3248,366,8823,1166,
867,7,27,2023,12,43,58,999,3279,1963,2988,1200,10032,1034,
868,7,27,2023,12,43,59,9,3282,2655,2583,1835,11053,795,
869,7,27,2023,12,43,59,19,3113,2904,2362,1970,11568,388,
870,7,27,2023,12,43,59,29,3339,2495,2492,1954,11639,-407,
871,7,27,2023,12,43,59,39,3745,2010,2868,2252,11598,-1663,
872,7,27,2023,12,43,59,49,3875,1773,3309,2752,11590,-3206,
873,7,27,2023,12,43,59,59,3931,1443,3828,3081,11571,-4693,
874,7,27,2023,12,43,59,69,4162,863,4502,3195,11529,-5888,
875,7,27,2023,12,43,59,79,4579,294,5370,3301,11562,-6765,
876,7,27,2023,12,43,59,89,5428,-62,5995,3355,11674,-7466,
877,7,27,2023,12,43,59,99,6562,37,6515,3153,11882,-7936,
878,7,27,2023,12,43,59,109,8064,-29,6743,2458,12141,-8041,
879,7,27,2023,12,43,59,119,9692,-1395,5981,1551,12361,-7827,
880,7,27,2023,12,43,59,129,10448,-3069,4385,1346,12356,-7408,
881,7,27,2023,12,43,59,139,10796,-3543,2041,2063,11913,-6774,
882,7,27,2023,12,43,59,149,11901,-2450,-561,2806,10841,-5757,
883,7,27,2023,12,43,59,159,13676,-430,-2489,2534,9511,-3971,
884,7,27,2023,12,43,59,169,13795,-879,-4828,1314,8397,-1550,
885,7,27,2023,12,43,59,179,13509,-3773,-7673,1040,7001,317,
886,7,27,2023,12,43,59,189,12750,-4235,-9917,2445,5114,1065,
887,7,27,2023,12,43,59,199,11001,-1440,-10437,3199,2844,1026,
888,7,27,2023,12,43,59,209,10143,678,-9268,1285,351,804,
889,7,27,2023,12,43,59,219,9979,-526,-7593,-1456,-1528,594,
890,7,27,2023,12,43,59,229,8365,-1468,-6688,-1984,-2542,253,
891,7,27,2023,12,43,59,239,6205,304,-9290,-1657,-4258,750,
892,7,27,2023,12,43,59,249,2335,-1696,-7527,-4404,-8557,3457,
893,7,27,2023,12,43,59,259,22464,-3640,17902,-5814,-10252,5049,
894,7,27,2023,12,43,59,269,13778,-5506,9209,-4009,-1480,3327,
895,7,27,2023,12,43,59,279,-1501,-2882,6541,-891,-321,1755,
896,7,27,2023,12,43,59,289,1554,-1392,11187,-345,-1018,1040,
897,7,27,2023,12,43,59,299,6092,1867,5578,-119,-720,367,
898,7,27,2023,12,43,59,309,2798,2900,2311,-249,-960,419,
899,7,27,2023,12,43,59,319,4341,-1107,702,-414,-1592,986,
900,7,27,2023,12,43,59,329,2699,-1211,2320,-221,-1534,845,
901,7,27,2023,12,43,59,339,2996,-110,4420,-6,-918,398,
902,7,27,2023,12,43,59,349,3795,1423,4562,-84,-336,185,
903,7,27,2023,12,43,59,359,1205,2004,4837,-152,-354,291,
904,7,27,2023,12,43,59,369,1888,65,4898,-263,-1020,505,
905,7,27,2023,12,43,59,379,2865,206,4579,-151,-1294,381,
906,7,27,2023,12,43,59,389,3042,497,4206,-110,-1469,376,
907,7,27,2023,12,43,59,399,2782,-180,4137,-69,-1996,369,
908,7,27,2023,12,43,59,409,2468,-188,4593,54,-2968,347,
909,7,27,2023,12,43,59,419,2291,650,4457,122,-4081,430,
910,7,27,2023,12,43,59,429,1892,359,4533,236,-5489,557,
911,7,27,2023,12,43,59,439,1042,552,5873,340,-7117,619,
912,7,27,2023,12,43,59,449,2397,976,4120,128,-8309,779,
913,7,27,2023,12,43,59,459,840,506,4215,-186,-9588,755,
914,7,27,2023,12,43,59,469,2262,853,4384,-349,-10814,1164,
915,7,27,2023,12,43,59,479,3436,61,2976,-731,-11732,1302,
916,7,27,2023,12,43,59,489,3377,-548,2239,-1142,-12442,1397,
917,7,27,2023,12,43,59,499,3619,-320,2541,-896,-12899,963,
918,7,27,2023,12,43,59,509,5414,-356,2995,-780,-13177,644,
919,7,27,2023,12,43,59,519,3630,-680,2090,-311,-12859,85,
920,7,27,2023,12,43,59,529,4924,708,1682,352,-12547,-148,
921,7,27,2023,12,43,59,539,6564,304,3347,456,-11962,-103,
922,7,27,2023,12,43,59,549,3278,703,2403,810,-10515,-76,
923,7,27,2023,12,43,59,559,4517,652,2238,769,-10046,172,
924,7,27,2023,12,43,59,569,4603,126,1472,682,-9820,369,
925,7,27,2023,12,43,59,579,4622,329,1636,753,-9844,569,
926,7,27,2023,12,43,59,589,4848,58,2456,753,-9710,715,
927,7,27,2023,12,43,59,599,4636,-951,2449,924,-9375,825,
928,7,27,2023,12,43,59,609,5436,-1277,4336,1522,-9101,1036,
929,7,27,2023,12,43,59,619,8539,-996,6059,2688,-8104,1749,
930,7,27,2023,12,43,59,629,7285,394,6926,3241,-5967,2664,
931,7,27,2023,12,43,59,639,5560,1076,6563,2848,-3195,3310,
932,7,27,2023,12,43,59,649,4503,1759,6200,2104,-1783,3799,
933,7,27,2023,12,43,59,659,4119,2657,6054,1159,-1180,4164,
934,7,27,2023,12,43,59,669,3829,3239,6176,-163,-878,4323,
935,7,27,2023,12,43,59,679,3902,3485,6254,-1606,-594,4194,
936,7,27,2023,12,43,59,699,4051,3084,5851,-3694,1045,3252,
937,7,27,2023,12,43,59,709,3583,2426,5469,-3806,2333,2607,
938,7,27,2023,12,43,59,719,3077,1948,4955,-3212,3744,1937,
939,7,27,2023,12,43,59,729,2638,1760,4407,-2250,5144,1402,
940,7,27,2023,12,43,59,739,2233,1876,3896,-1274,6447,1098,
941,7,27,2023,12,43,59,749,1991,2175,3392,-569,7641,998,
942,7,27,2023,12,43,59,759,1959,2295,2973,-188,8697,1070,
943,7,27,2023,12,43,59,769,2385,2122,2799,87,9616,1223,
944,7,27,2023,12,43,59,779,3002,1925,2561,599,10574,1259,
945,7,27,2023,12,43,59,789,3153,2314,2180,1295,11531,1107,
946,7,27,2023,12,43,59,799,2882,2762,1810,1735,12098,801,
947,7,27,2023,12,43,59,809,3000,2800,1787,1865,12131,216,
948,7,27,2023,12,43,59,819,3382,2676,2097,1986,11950,-753,
949,7,27,2023,12,43,59,829,3800,2486,2702,2222,11792,-2083,
950,7,27,2023,12,43,59,839,4075,2124,3391,2482,11755,-3629,
951,7,27,2023,12,43,59,849,4225,1470,4088,2738,11790,-5095,
952,7,27,2023,12,43,59,859,4557,477,4897,3046,11792,-6282,
953,7,27,2023,12,43,59,869,5378,-234,5626,3496,11846,-7188,
954,7,27,2023,12,43,59,879,6308,-408,6158,3842,12021,-7743,
955,7,27,2023,12,43,59,889,7397,-150,6445,3742,12237,-7826,
956,7,27,2023,12,43,59,899,8555,-380,6087,3004,12388,-7521,
957,7,27,2023,12,43,59,909,9094,-1774,4779,2081,12199,-7081,
958,7,27,2023,12,43,59,919,9349,-2917,2959,1808,11487,-6520,
959,7,27,2023,12,43,59,929,10683,-2493,1173,2146,10400,-5652,
960,7,27,2023,12,43,59,939,12731,-1168,-641,2197,9489,-4222,
961,7,27,2023,12,43,59,949,12869,-1240,-3545,1718,8938,-2302,
962,7,27,2023,12,43,59,959,11823,-2906,-6780,1833,7856,-403,
963,7,27,2023,12,43,59,969,11486,-3762,-9073,3007,5795,1039,
964,7,27,2023,12,43,59,979,11023,-2853,-9957,4151,3395,1751,
965,7,27,2023,12,43,59,989,10400,-1333,-9494,3772,1113,1872,
966,7,27,2023,12,43,59,999,9967,-642,-8413,2043,-753,1826,
967,7,27,2023,12,44,0,9,9117,-325,-8400,-22,-2374,2134,
968,7,27,2023,12,44,0,19,10301,-1369,-13012,-2830,-5107,3764,
969,7,27,2023,12,44,0,29,7303,-5644,-4943,-6726,-9734,7214,
970,7,27,2023,12,44,0,39,24581,-1576,20181,-6359,-7452,7260,
971,7,27,2023,12,44,0,49,3338,-4110,3706,-2963,1434,2836,
972,7,27,2023,12,44,0,59,308,-4693,9937,-1853,-1295,1976,
973,7,27,2023,12,44,0,69,3720,-1660,9230,-472,-752,1106,
974,7,27,2023,12,44,0,79,4316,2828,3962,43,-427,354,
975,7,27,2023,12,44,0,89,1903,3144,2933,-304,-1160,568,
976,7,27,2023,12,44,0,99,2464,-363,2139,-546,-1540,1294,
977,7,27,2023,12,44,0,109,2446,-827,2705,-402,-1487,1093,
978,7,27,2023,12,44,0,119,4388,-574,3957,-252,-899,608,
979,7,27,2023,12,44,0,129,4538,910,4537,-226,-560,379,
980,7,27,2023,12,44,0,139,1946,922,4817,-249,-810,452,
981,7,27,2023,12,44,0,149,2569,-58,4037,-299,-1375,579,
982,7,27,2023,12,44,0,159,3066,454,3764,-193,-1622,459,
983,7,27,2023,12,44,0,169,1536,832,4995,-151,-1897,433,
984,7,27,2023,12,44,0,179,2507,261,5309,-120,-2534,460,
985,7,27,2023,12,44,0,189,1725,1076,5366,-70,-3444,527,
986,7,27,2023,12,44,0,199,1842,277,4942,-143,-4785,748,
987,7,27,2023,12,44,0,209,2444,-117,4764,13,-6585,780,
988,7,27,2023,12,44,0,219,2779,358,4264,-116,-8193,904,
989,7,27,2023,12,44,0,229,2169,681,4194,-501,-9523,986,
990,7,27,2023,12,44,0,239,2148,440,4322,-775,-10692,1143,
991,7,27,2023,12,44,0,249,2542,715,4720,-1005,-11632,1387,
992,7,27,2023,12,44,0,259,3527,-832,2801,-1467,-12288,1408,
993,7,27,2023,12,44,0,269,1898,-259,3405,-1213,-12673,1078,
994,7,27,2023,12,44,0,279,5307,-62,3337,-897,-13042,897,
995,7,27,2023,12,44,0,289,3836,-1709,1426,-472,-12737,465,
996,7,27,2023,12,44,0,299,6052,-75,977,364,-12707,394,
997,7,27,2023,12,44,0,309,6789,-251,2165,513,-11835,51,
998,7,27,2023,12,44,0,319,5290,-424,2079,800,-10338,-206,
999,7,27,2023,12,44,0,329,4365,416,1970,1366,-9114,-297,
1000,7,27,2023,12,44,0,339,4134,256,1510,1610,-8013,-275,
1001,7,27,2023,12,44,0,349,3404,-157,1104,1636,-7774,74,
1002,7,27,2023,12,44,0,359,4382,-839,1584,1624,-7817,465,
1003,7,27,2023,12,44,0,369,4791,-1307,1825,1803,-7848,1442,
1004,7,27,2023,12,44,0,379,7550,101,4380,2286,-8255,2367,
1005,7,27,2023,12,44,0,389,6461,1467,5592,1749,-6510,2766,
1006,7,27,2023,12,44,0,399,4969,1397,5761,503,-4862,3018,
1007,7,27,2023,12,44,0,409,3907,761,5577,-517,-4041,3196,
1008,7,27,2023,12,44,0,419,3589,532,5525,-786,-3727,3207,
1009,7,27,2023,12,44,0,429,3529,755,5780,-585,-3666,3174,
1010,7,27,2023,12,44,0,439,4176,1652,6204,-384,-3653,3217,
1011,7,27,2023,12,44,0,449,4861,2584,6962,-612,-3450,3347,
1012,7,27,2023,12,44,0,459,5250,3479,7726,-1418,-3030,3369,
1013,7,27,2023,12,44,0,469,5513,4075,8096,-2626,-2187,3180,
1014,7,27,2023,12,44,0,479,5339,4079,7853,-3924,-762,2774,
1015,7,27,2023,12,44,0,489,4321,3043,7118,-4817,997,2269,
1016,7,27,2023,12,44,0,499,2927,1819,6175,-4639,2695,1692,
1017,7,27,2023,12,44,0,509,1818,1061,5137,-3477,4070,1143,
1018,7,27,2023,12,44,0,519,1604,1066,4421,-1904,5148,849,
1019,7,27,2023,12,44,0,529,1703,1798,4050,-540,6236,830,
1020,7,27,2023,12,44,0,539,1849,2408,3790,69,7417,1069,
1021,7,27,2023,12,44,0,559,2909,1872,3388,420,9817,1692,
1022,7,27,2023,12,44,0,569,3687,1529,3149,1260,11033,1705,
1023,7,27,2023,12,44,0,579,4130,2016,2760,2456,12209,1499,
1024,7,27,2023,12,44,0,589,3842,2655,2350,3243,13000,1136,
1025,7,27,2023,12,44,0,599,3700,2525,2109,3467,13074,541,
1026,7,27,2023,12,44,0,609,4134,2258,2270,3667,12674,-409,
1027,7,27,2023,12,44,0,619,4418,2377,2837,3910,12224,-1760,
1028,7,27,2023,12,44,0,629,4612,2221,3728,3834,11853,-3390,
1029,7,27,2023,12,44,0,639,4887,1431,4744,3575,11684,-5019,
1030,7,27,2023,12,44,0,649,5205,341,5595,3492,11738,-6411,
1031,7,27,2023,12,44,0,659,6207,-152,6312,3708,11983,-7357,
1032,7,27,2023,12,44,0,669,7900,12,6456,3828,12415,-7847,
1033,7,27,2023,12,44,0,679,9248,-66,5852,3388,12906,-7991,
1034,7,27,2023,12,44,0,689,9673,-1348,4642,2653,13080,-7911,
1035,7,27,2023,12,44,0,699,9982,-2778,2411,2472,12774,-7716,
1036,7,27,2023,12,44,0,709,10021,-3678,-795,3058,11675,-7352,
1037,7,27,2023,12,44,0,719,10820,-2873,-3166,3800,9566,-6491,
1038,7,27,2023,12,44,0,729,13052,-1997,-4124,3763,7096,-4913,
1039,7,27,2023,12,44,0,739,15549,-2821,-4745,3321,5526,-3257,
1040,7,27,2023,12,44,0,749,16341,-3734,-6765,3262,5239,-2247,
1041,7,27,2023,12,44,0,759,13576,-2999,-9138,3173,5212,-1422,
1042,7,27,2023,12,44,0,769,10362,-1767,-10083,2083,4078,-398,
1043,7,27,2023,12,44,0,779,9456,-994,-9018,80,1994,491,
1044,7,27,2023,12,44,0,789,9383,-1556,-7243,-1385,316,860,
1045,7,27,2023,12,44,0,799,7165,-668,-6920,-1241,-800,777,
1046,7,27,2023,12,44,0,809,5762,449,-11669,-1787,-3681,2333,
1047,7,27,2023,12,44,0,819,4348,-1685,-3966,-5052,-9179,6007,
1048,7,27,2023,12,44,0,829,23335,2053,19657,-6272,-8815,6358,
1049,7,27,2023,12,44,0,839,7663,-5019,5590,-4865,-1176,3002,
1050,7,27,2023,12,44,0,849,2380,-7483,10569,-3550,-2834,2118,
1051,7,27,2023,12,44,0,859,4619,-2942,9811,-905,-1256,1154,
1052,7,27,2023,12,44,0,869,5536,4709,4465,598,-312,257,
1053,7,27,2023,12,44,0,879,1630,1142,2661,-34,-957,323,
1054,7,27,2023,12,44,0,889,1591,-122,2358,-214,-1470,763,
1055,7,27,2023,12,44,0,899,2174,-541,3293,-75,-1635,683,
1056,7,27,2023,12,44,0,909,3828,308,3861,34,-975,211,
1057,7,27,2023,12,44,0,919,3380,1999,4200,-112,-264,339,
1058,7,27,2023,12,44,0,929,2807,661,4138,-169,-551,464,
1059,7,27,2023,12,44,0,939,2958,-185,3923,-193,-1098,516,
1060,7,27,2023,12,44,0,949,3439,371,3662,-147,-1283,363,
1061,7,27,2023,12,44,0,959,2455,1207,4302,-141,-1272,347,
1062,7,27,2023,12,44,0,969,1008,800,5640,-166,-1653,434,
1063,7,27,2023,12,44,0,979,2680,580,4681,-81,-2401,455,
1064,7,27,2023,12,44,0,989,1323,405,4886,80,-3492,429,
1065,7,27,2023,12,44,0,999,1582,78,4968,121,-4856,510,
1066,7,27,2023,12,44,1,9,2261,34,4604,210,-6677,614,
1067,7,27,2023,12,44,1,19,2394,502,3989,318,-8409,688,
1068,7,27,2023,12,44,1,29,1816,237,4039,12,-9877,789,
1069,7,27,2023,12,44,1,39,2291,772,4228,-288,-10951,989,
1070,7,27,2023,12,44,1,49,2318,161,3623,-727,-11676,1162,
1071,7,27,2023,12,44,1,59,3060,-6,2513,-917,-12094,952,
1072,7,27,2023,12,44,1,69,3107,23,3801,-860,-12487,709,
1073,7,27,2023,12,44,1,79,5013,-163,3052,-554,-12794,301,
1074,7,27,2023,12,44,1,89,3009,-379,1598,-178,-12380,-195,
1075,7,27,2023,12,44,1,99,6065,-320,993,-33,-12727,-338,
1076,7,27,2023,12,44,1,109,6538,-563,1640,220,-12295,-642,
1077,7,27,2023,12,44,1,119,5075,1215,2607,629,-11148,-614,
1078,7,27,2023,12,44,1,129,4008,761,2310,33,-9942,-273,
1079,7,27,2023,12,44,1,139,5502,637,2696,-377,-9244,-151,
1080,7,27,2023,12,44,1,149,3259,743,2077,-447,-8917,-92,
1081,7,27,2023,12,44,1,159,4212,207,2266,-908,-9194,258,
1082,7,27,2023,12,44,1,169,5212,-1021,2901,-1030,-9271,340,
1083,7,27,2023,12,44,1,179,4196,-1657,3306,-219,-9115,206,
1084,7,27,2023,12,44,1,189,6994,-2478,5246,1268,-8924,1013,
1085,7,27,2023,12,44,1,199,8491,-979,7348,2372,-7689,2518,
1086,7,27,2023,12,44,1,209,6753,11,7142,2638,-4707,3623,
1087,7,27,2023,12,44,1,219,5464,680,6875,2533,-2647,4487,
1088,7,27,2023,12,44,1,229,4598,1740,6666,2261,-1550,5180,
1089,7,27,2023,12,44,1,239,4441,2861,6792,1503,-1151,5698,
1090,7,27,2023,12,44,1,249,4720,3874,7010,225,-868,5890,
1091,7,27,2023,12,44,1,259,4986,4556,7008,-1313,-79,5743,
1092,7,27,2023,12,44,1,269,4766,4463,6735,-2764,1180,5317,
1093,7,27,2023,12,44,1,279,3811,3862,6135,-3585,2635,4626,
1094,7,27,2023,12,44,1,289,2649,3079,5249,-3547,4012,3777,
1095,7,27,2023,12,44,1,299,2043,2518,4514,-2806,5110,2960,
1096,7,27,2023,12,44,1,309,1645,2595,3949,-1681,6083,2203,
1097,7,27,2023,12,44,1,319,1508,3078,3589,-767,6971,1601,
1098,7,27,2023,12,44,1,329,1746,3224,3348,-310,7799,1216,
1099,7,27,2023,12,44,1,339,2354,3031,3298,-18,8684,899,
1100,7,27,2023,12,44,1,349,3275,2859,3309,437,9737,529,
1101,7,27,2023,12,44,1,359,3670,2972,3101,1010,10928,74,
1102,7,27,2023,12,44,1,369,3527,2923,2748,1452,11842,-410,
1103,7,27,2023,12,44,1,379,3557,2623,2524,1824,12229,-976,
1104,7,27,2023,12,44,1,389,3871,2400,2590,2291,12258,-1670,
1105,7,27,2023,12,44,1,399,4195,2464,2864,2731,12155,-2459,
1106,7,27,2023,12,44,1,419,4957,1774,4258,2909,11875,-4166,
1107,7,27,2023,12,44,1,429,5542,931,5058,3103,11947,-5028,
1108,7,27,2023,12,44,1,439,5967,421,5540,3540,12234,-5778,
1109,7,27,2023,12,44,1,449,6579,287,5899,3920,12528,-6227,
1110,7,27,2023,12,44,1,459,7612,511,5924,4032,12812,-6371,
1111,7,27,2023,12,44,1,469,8742,286,5190,3708,13033,-6356,
1112,7,27,2023,12,44,1,479,9019,-971,3890,3206,12931,-6507,
1113,7,27,2023,12,44,1,489,9754,-2270,2156,3039,12358,-6849,
1114,7,27,2023,12,44,1,499,11135,-2344,89,3148,11524,-6893,
1115,7,27,2023,12,44,1,509,12170,-2172,-1628,2882,10633,-6123,
1116,7,27,2023,12,44,1,519,12480,-3244,-3279,2313,9666,-4536,
1117,7,27,2023,12,44,1,529,12250,-5040,-5637,2530,8578,-2548,
1118,7,27,2023,12,44,1,539,11945,-5512,-8410,3720,7145,-620,
1119,7,27,2023,12,44,1,549,11304,-3932,-10250,4308,4994,1069,
1120,7,27,2023,12,44,1,559,10843,-2340,-10039,3036,2287,2390,
1121,7,27,2023,12,44,1,569,10745,-2163,-8416,739,-189,2944,
1122,7,27,2023,12,44,1,579,9393,-1566,-7808,-759,-1960,2832,
1123,7,27,2023,12,44,1,589,9386,-1507,-13386,-2352,-4666,3715,
1124,7,27,2023,12,44,1,599,4474,-4904,-8451,-5570,-10440,6780,
1125,7,27,2023,12,44,1,609,26734,271,21426,-5776,-11100,7172,
1126,7,27,2023,12,44,1,619,12062,-204,8203,-4953,-1572,3865,
1127,7,27,2023,12,44,1,629,-1120,-6860,9556,-2710,-2094,2419,
1128,7,27,2023,12,44,1,639,2554,-2156,9715,-958,-1075,1937,
1129,7,27,2023,12,44,1,649,8033,2128,4840,-259,-855,1168,
1130,7,27,2023,12,44,1,659,3951,586,3328,-303,-1224,777,
1131,7,27,2023,12,44,1,669,1991,87,2414,-242,-1545,1065,
1132,7,27,2023,12,44,1,679,1242,-1354,3031,-39,-2037,841,
1133,7,27,2023,12,44,1,689,3293,196,4966,60,-1553,374,
1134,7,27,2023,12,44,1,699,4516,1771,4372,-33,-751,140,
1135,7,27,2023,12,44,1,709,951,1993,4727,-134,-892,344,
1136,7,27,2023,12,44,1,719,1965,141,4128,-314,-1443,645,
1137,7,27,2023,12,44,1,729,3471,-81,3558,-264,-1845,615,
1138,7,27,2023,12,44,1,739,3817,-142,3874,-206,-2194,557,
1139,7,27,2023,12,44,1,749,2373,577,4650,-61,-2636,499,
1140,7,27,2023,12,44,1,759,1204,409,5331,-173,-3757,632,
1141,7,27,2023,12,44,1,769,2011,203,5442,0,-5291,667,
1142,7,27,2023,12,44,1,779,1874,303,4746,95,-6644,552,
1143,7,27,2023,12,44,1,789,1392,507,4962,-192,-8039,713,
1144,7,27,2023,12,44,1,799,2181,560,4418,-513,-9179,822,
1145,7,27,2023,12,44,1,809,2448,604,3630,-679,-10050,1049,
1146,7,27,2023,12,44,1,819,3082,519,2528,-1015,-11016,1391,
1147,7,27,2023,12,44,1,829,3588,-283,2903,-1455,-11953,1559,
1148,7,27,2023,12,44,1,839,3007,434,2963,-1187,-12180,1474,
1149,7,27,2023,12,44,1,849,3062,20,2120,-1170,-12329,1454,
1150,7,27,2023,12,44,1,859,4659,-582,2268,-470,-12216,768,
1151,7,27,2023,12,44,1,869,6614,183,2476,86,-12187,715,
1152,7,27,2023,12,44,1,879,4108,-4,1546,428,-11131,506,
1153,7,27,2023,12,44,1,889,4792,-291,2318,1014,-10322,399,
1154,7,27,2023,12,44,1,899,3505,245,968,1707,-9828,394,
1155,7,27,2023,12,44,1,909,4847,-94,1271,1700,-9821,561,
1156,7,27,2023,12,44,1,919,4227,125,1369,1605,-9301,722,
1157,7,27,2023,12,44,1,929,4473,381,1728,1373,-8926,918,
1158,7,27,2023,12,44,1,939,4908,506,3102,936,-8850,1226,
1159,7,27,2023,12,44,1,949,2985,132,2366,482,-8579,1483,
1160,7,27,2023,12,44,1,959,3985,-157,3063,40,-9019,1777,
1161,7,27,2023,12,44,1,969,7963,-730,5576,438,-9124,1735,
1162,7,27,2023,12,44,1,979,7890,329,7128,1068,-7376,1823,
1163,7,27,2023,12,44,1,989,6650,847,7275,961,-4772,2106,
1164,7,27,2023,12,44,1,999,6123,1095,7420,616,-3007,2394,
1165,7,27,2023,12,44,2,9,6148,1915,7601,272,-1790,2639,
1166,7,27,2023,12,44,2,19,5885,2821,7718,-404,-864,2834,
1167,7,27,2023,12,44,2,29,5395,3453,7556,-1495,11,2974,
1168,7,27,2023,12,44,2,39,5038,3522,7201,-2665,1022,3089,
1169,7,27,2023,12,44,2,49,4546,2849,6579,-3392,2189,3106,
1170,7,27,2023,12,44,2,59,3722,1958,5785,-3189,3470,2993,
1171,7,27,2023,12,44,2,69,2769,1585,5031,-2112,4680,2812,
1172,7,27,2023,12,44,2,79,2461,1855,4503,-780,5688,2635,
1173,7,27,2023,12,44,2,89,2598,2594,4239,194,6693,2446,
1174,7,27,2023,12,44,2,99,2773,3348,4026,456,7873,2270,
1175,7,27,2023,12,44,2,109,2791,3439,3684,205,9118,2118,
1176,7,27,2023,12,44,2,119,2700,2921,3176,49,10264,1869,
1177,7,27,2023,12,44,2,129,2655,2413,2527,481,11150,1438,
1178,7,27,2023,12,44,2,139,2663,2777,2042,1389,11679,837,
1179,7,27,2023,12,44,2,149,2820,3436,1963,2040,11789,73,
1180,7,27,2023,12,44,2,159,3450,3405,2290,2187,11633,-923,
1181,7,27,2023,12,44,2,169,3986,2941,2689,2362,11603,-2197,
1182,7,27,2023,12,44,2,179,3914,2745,3044,2747,11754,-3623,
1183,7,27,2023,12,44,2,189,3771,2568,3519,2989,11822,-4970,
1184,7,27,2023,12,44,2,199,3931,1910,4257,3016,11750,-6072,
1185,7,27,2023,12,44,2,209,4380,867,5201,3136,11679,-6907,
1186,7,27,2023,12,44,2,219,5209,99,6074,3575,11813,-7515,
1187,7,27,2023,12,44,2,229,6332,-254,6791,4074,12162,-7834,
1188,7,27,2023,12,44,2,239,8093,-109,6717,4359,12687,-7751,
1189,7,27,2023,12,44,2,249,9110,-596,5709,4104,13216,-7316,
1190,7,27,2023,12,44,2,259,9295,-2406,4361,3598,13171,-7003,
1191,7,27,2023,12,44,2,279,12643,-2253,479,3356,12019,-6118,
1192,7,27,2023,12,44,2,289,13255,-2351,-1770,2268,11317,-4522,
1193,7,27,2023,12,44,2,299,13216,-4419,-4302,1336,10019,-2531,
1194,7,27,2023,12,44,2,309,13829,-5654,-7263,1980,8253,-880,
1195,7,27,2023,12,44,2,319,13936,-4345,-9933,2975,6137,118,
1196,7,27,2023,12,44,2,329,12517,-2254,-11403,2260,3446,776,
1197,7,27,2023,12,44,2,339,11780,-2252,-11025,-484,121,1261,
1198,7,27,2023,12,44,2,349,13320,-3217,-12984,-2877,-3180,1823,
1199,7,27,2023,12,44,2,359,12697,-7132,-17669,-4345,-7796,3880,
1200,7,27,2023,12,44,2,369,14943,-5226,3983,-4982,-12172,6423,
1201,7,27,2023,12,44,2,379,24427,1384,19283,-3649,-6802,4682,
1202,7,27,2023,12,44,2,389,2140,-922,2480,-3206,-557,2582,
1203,7,27,2023,12,44,2,399,3536,-2662,11508,-3416,-3827,2254,
1204,7,27,2023,12,44,2,409,2642,-3099,8638,-935,-1525,1337,
1205,7,27,2023,12,44,2,419,4200,3028,4192,201,-552,918,
1206,7,27,2023,12,44,2,429,2972,1374,3283,-313,-1344,825,
1207,7,27,2023,12,44,2,439,2836,-260,2433,-377,-1448,1080,
1208,7,27,2023,12,44,2,449,2741,-968,3142,-214,-1554,998,
1209,7,27,2023,12,44,2,459,4605,-466,3886,-187,-1240,514,
1210,7,27,2023,12,44,2,469,3042,2234,4519,-228,-824,415,
1211,7,27,2023,12,44,2,479,1591,1550,4480,-359,-1048,582,
1212,7,27,2023,12,44,2,489,1559,202,4770,-395,-1540,787,
1213,7,27,2023,12,44,2,499,3987,-202,3768,-291,-1757,688,
1214,7,27,2023,12,44,2,509,1612,161,4909,-156,-2071,539,
1215,7,27,2023,12,44,2,519,1986,262,5497,-68,-2859,520,
1216,7,27,2023,12,44,2,529,2097,123,4847,-105,-4147,614,
1217,7,27,2023,12,44,2,539,2658,-458,4297,-22,-6003,795,
1218,7,27,2023,12,44,2,549,1867,-32,4784,89,-7772,700,
1219,7,27,2023,12,44,2,559,1879,739,4760,-225,-9164,797,
1220,7,27,2023,12,44,2,569,2017,723,4593,-559,-10324,867,
1221,7,27,2023,12,44,2,579,1588,879,3647,-685,-11093,1016,
1222,7,27,2023,12,44,2,589,2671,895,3753,-1145,-12094,1495,
1223,7,27,2023,12,44,2,599,3491,-368,3462,-1534,-12633,1549,
1224,7,27,2023,12,44,2,609,2898,136,2170,-1168,-12745,1446,
1225,7,27,2023,12,44,2,619,4812,-508,1663,-1121,-13268,1119,
1226,7,27,2023,12,44,2,629,5691,-994,1912,-689,-13320,601,
1227,7,27,2023,12,44,2,639,5773,626,2003,-150,-12865,386,
1228,7,27,2023,12,44,2,649,5158,174,2691,-88,-12026,263,
1229,7,27,2023,12,44,2,659,3485,297,1800,527,-10787,52,
1230,7,27,2023,12,44,2,669,5336,306,2879,993,-10870,285,
1231,7,27,2023,12,44,2,679,2672,520,1746,1637,-10302,280,
1232,7,27,2023,12,44,2,689,4309,900,1654,1781,-10211,495,
1233,7,27,2023,12,44,2,699,4748,86,1883,1520,-10490,1009,
1234,7,27,2023,12,44,2,709,5541,-280,2427,1711,-10376,1264,
1235,7,27,2023,12,44,2,719,4975,149,2947,2007,-10357,1468,
1236,7,27,2023,12,44,2,729,6466,234,4388,2156,-9832,1599,
1237,7,27,2023,12,44,2,739,10851,1833,7169,2551,-9375,1596,
1238,7,27,2023,12,44,2,749,8615,2283,7758,1797,-6457,1877,
1239,7,27,2023,12,44,2,759,7392,1849,7974,620,-3758,2143,
1240,7,27,2023,12,44,2,769,6588,1876,8110,-161,-2068,2244,
1241,7,27,2023,12,44,2,779,6178,2401,8305,-749,-932,2300,
1242,7,27,2023,12,44,2,789,5255,2963,8133,-1553,9,2377,
1243,7,27,2023,12,44,2,799,4598,2890,7688,-2486,989,2557,
1244,7,27,2023,12,44,2,809,4262,1875,7121,-2979,2218,2692,
1245,7,27,2023,12,44,2,819,3431,1029,6290,-2438,3726,2633,
1246,7,27,2023,12,44,2,829,2335,970,5295,-1145,5159,2549,
1247,7,27,2023,12,44,2,839,1839,1429,4522,109,6221,2616,
1248,7,27,2023,12,44,2,849,2078,2207,4159,816,7167,2788,
1249,7,27,2023,12,44,2,859,2734,2776,4090,912,8312,2928,
1250,7,27,2023,12,44,2,869,3048,2912,3863,687,9771,2892,
1251,7,27,2023,12,44,2,879,3028,2661,3277,577,11224,2686,
1252,7,27,2023,12,44,2,889,2877,2373,2525,887,12340,2355,
1253,7,27,2023,12,44,2,899,2886,2400,1815,1552,12957,1890,
1254,7,27,2023,12,44,2,909,3160,2926,1530,2215,13083,1251,
1255,7,27,2023,12,44,2,919,3583,3170,1810,2444,12839,299,
1256,7,27,2023,12,44,2,929,4319,2768,2380,2443,12535,-1012,
1257,7,27,2023,12,44,2,939,4731,2628,2819,2635,12523,-2518,
1258,7,27,2023,12,44,2,949,4513,2643,3205,2799,12609,-3979,
1259,7,27,2023,12,44,2,959,4330,2109,3755,2753,12538,-5238,
1260,7,27,2023,12,44,2,969,4486,1224,4663,2830,12393,-6253,
1261,7,27,2023,12,44,2,979,5166,543,5664,3191,12347,-7078,
1262,7,27,2023,12,44,2,989,6280,348,6413,3644,12539,-7680,
1263,7,27,2023,12,44,2,999,7694,613,6392,3802,12865,-8006,
1264,7,27,2023,12,44,3,9,9124,599,5691,3372,13094,-8014,
1265,7,27,2023,12,44,3,19,9916,-909,4574,2650,12987,-7848,
1266,7,27,2023,12,44,3,29,10969,-2761,3314,2505,12549,-7829,
1267,7,27,2023,12,44,3,39,12873,-3037,1502,2946,12022,-7738,
1268,7,27,2023,12,44,3,49,14379,-2763,-938,3043,11550,-6884,
1269,7,27,2023,12,44,3,59,14317,-3540,-3947,2539,10677,-5240,
1270,7,27,2023,12,44,3,69,14025,-4752,-7223,2268,9025,-3063,
1271,7,27,2023,12,44,3,79,14521,-4911,-9753,2591,6739,-902,
1272,7,27,2023,12,44,3,89,13737,-3413,-10882,2501,4267,739,
1273,7,27,2023,12,44,3,99,12269,-1385,-10656,947,1684,1610,
1274,7,27,2023,12,44,3,109,11737,-1866,-10661,-1779,-1081,2155,
1275,7,27,2023,12,44,3,119,12553,-3055,-13085,-3541,-4129,2783,
1276,7,27,2023,12,44,3,139,13681,-3314,11119,-4384,-12203,4709,
1277,7,27,2023,12,44,3,149,20220,-2072,17892,-3099,-7250,2896,
1278,7,27,2023,12,44,3,159,6903,-2387,5633,-2891,-2927,3216,
1279,7,27,2023,12,44,3,169,5074,-319,9933,-2652,-3345,2415,
1280,7,27,2023,12,44,3,179,2643,-1525,7389,-650,-1472,1072,
1281,7,27,2023,12,44,3,189,4966,1407,3456,170,-1071,707,
1282,7,27,2023,12,44,3,199,3237,1827,2095,-89,-1601,838,
1283,7,27,2023,12,44,3,209,1942,286,3056,-196,-1637,1082,
1284,7,27,2023,12,44,3,219,2694,-581,3962,-68,-1535,876,
1285,7,27,2023,12,44,3,229,3057,202,5055,-86,-1171,534,
1286,7,27,2023,12,44,3,239,3107,1439,4834,-157,-958,485,
1287,7,27,2023,12,44,3,249,2368,644,3914,-165,-1434,602,
1288,7,27,2023,12,44,3,259,3733,-143,3487,-111,-1927,755,
1289,7,27,2023,12,44,3,269,2644,71,4059,21,-1971,650,
1290,7,27,2023,12,44,3,279,1861,188,4792,106,-2280,525,
1291,7,27,2023,12,44,3,289,1211,1068,5776,133,-3065,561,
1292,7,27,2023,12,44,3,299,3171,249,4244,-19,-4068,720,
1293,7,27,2023,12,44,3,309,960,33,4997,178,-5518,725,
1294,7,27,2023,12,44,3,319,2277,109,5050,238,-6901,775,
1295,7,27,2023,12,44,3,329,2541,431,3896,-10,-7964,721,
1296,7,27,2023,12,44,3,339,2712,428,3180,-277,-9156,871,
1297,7,27,2023,12,44,3,349,2427,635,3494,-532,-10199,1020,
1298,7,27,2023,12,44,3,359,3278,774,3518,-886,-10947,1311,
1299,7,27,2023,12,44,3,369,2732,-61,3190,-1251,-11325,1402,
1300,7,27,2023,12,44,3,379,1772,115,2835,-1055,-11456,1240,
1301,7,27,2023,12,44,3,389,4804,-158,2980,-966,-11886,1199,
1302,7,27,2023,12,44,3,399,3826,-774,2202,-568,-11779,572,
1303,7,27,2023,12,44,3,409,4211,32,1366,157,-11776,217,
1304,7,27,2023,12,44,3,419,6164,-65,1497,440,-11968,160,
1305,7,27,2023,12,44,3,429,5393,-409,1890,1006,-11430,-42,
1306,7,27,2023,12,44,3,439,4005,514,2283,1759,-10808,-70,
1307,7,27,2023,12,44,3,449,3185,459,2013,2114,-10622,-2,
1308,7,27,2023,12,44,3,459,4789,53,2315,2360,-10641,133,
1309,7,27,2023,12,44,3,469,4251,881,3015,2513,-10965,456,
1310,7,27,2023,12,44,3,479,3676,230,2402,2238,-10805,661,
1311,7,27,2023,12,44,3,489,5521,278,3008,2128,-10890,1038,
1312,7,27,2023,12,44,3,499,4141,22,1930,1974,-10853,1480,
1313,7,27,2023,12,44,3,509,6718,-127,3706,2000,-11135,1815,
1314,7,27,2023,12,44,3,519,8089,885,5066,2436,-9824,1740,
1315,7,27,2023,12,44,3,529,12579,3002,8784,2949,-8327,1597,
1316,7,27,2023,12,44,3,539,9159,3598,8544,1727,-3920,1925,
1317,7,27,2023,12,44,3,549,7393,3311,8358,-48,-899,2293,
1318,7,27,2023,12,44,3,559,6234,3060,8047,-1557,824,2487,
1319,7,27,2023,12,44,3,569,5067,2864,7473,-2599,2083,2585,
1320,7,27,2023,12,44,3,579,3929,1948,6679,-3069,3111,2728,
1321,7,27,2023,12,44,3,589,3110,1152,5864,-2604,4142,2864,
1322,7,27,2023,12,44,3,599,2481,945,5098,-1442,5146,2882,
1323,7,27,2023,12,44,3,609,2363,1427,4568,-202,6136,2928,
1324,7,27,2023,12,44,3,619,2534,2286,4301,527,7263,3049,
1325,7,27,2023,12,44,3,629,2716,2883,4068,482,8555,3165,
1326,7,27,2023,12,44,3,639,2914,2934,3703,30,9908,3175,
1327,7,27,2023,12,44,3,649,2961,2606,3213,-228,11184,3015,
1328,7,27,2023,12,44,3,659,3026,2265,2688,43,12264,2656,
1329,7,27,2023,12,44,3,669,2917,2505,1972,672,13068,2072,
1330,7,27,2023,12,44,3,679,2948,3142,1310,1164,13321,1365,
1331,7,27,2023,12,44,3,689,3172,3458,1180,1176,12997,508,
1332,7,27,2023,12,44,3,699,3741,2920,1540,964,12383,-667,
1333,7,27,2023,12,44,3,709,4463,2492,2030,1147,11957,-2087,
1334,7,27,2023,12,44,3,719,4575,2733,2415,1576,11860,-3480,
1335,7,27,2023,12,44,3,729,4215,2677,2814,1672,11786,-4628,
1336,7,27,2023,12,44,3,739,4105,1986,3417,1607,11616,-5473,
1337,7,27,2023,12,44,3,749,4342,1128,4309,1843,11487,-6107,
1338,7,27,2023,12,44,3,759,5012,811,4884,2371,11527,-6626,
1339,7,27,2023,12,44,3,769,5975,1105,4897,2748,11666,-6902,
1340,7,27,2023,12,44,3,779,7272,1355,4636,2575,11699,-6888,
1341,7,27,2023,12,44,3,789,8683,897,4305,2026,11571,-6715,
1342,7,27,2023,12,44,3,799,10151,135,3393,1711,11459,-6516,
1343,7,27,2023,12,44,3,809,11104,-1033,1929,1801,11308,-6426,
1344,7,27,2023,12,44,3,819,12638,-1655,227,2251,10891,-6350,
1345,7,27,2023,12,44,3,829,13730,-2194,-1925,2742,10267,-5762,
1346,7,27,2023,12,44,3,839,13501,-3088,-4300,3108,9206,-4637,
1347,7,27,2023,12,44,3,849,13409,-3665,-6581,3541,7589,-3015,
1348,7,27,2023,12,44,3,859,13141,-3386,-9126,3665,5652,-835,
1349,7,27,2023,12,44,3,869,12794,-3361,-10394,2520,3280,1323,
1350,7,27,2023,12,44,3,879,12360,-1101,-11512,469,578,2857,
1351,7,27,2023,12,44,3,889,13289,-2955,-16270,-3700,-3302,4591,
1352,7,27,2023,12,44,3,899,11359,-9627,-13184,-7098,-8828,5559,
1353,7,27,2023,12,44,3,909,17530,-7589,10886,-4336,-10460,2776,
1354,7,27,2023,12,44,3,919,18487,-6491,15535,-2513,-3808,913,
1355,7,27,2023,12,44,3,929,975,-2825,3379,-1796,66,2379,
1356,7,27,2023,12,44,3,939,2897,3219,10445,-1378,-1954,1378,
1357,7,27,2023,12,44,3,949,1264,-2178,7166,-347,-1113,103,
1358,7,27,2023,12,44,3,959,1175,913,4054,306,-800,155,
1359,7,27,2023,12,44,3,969,5343,3479,2405,17,-1556,667,
1360,7,27,2023,12,44,3,979,4226,-32,1914,-350,-1437,851,
1361,7,27,2023,12,44,3,999,3182,-601,4131,-268,-717,781,
1362,7,27,2023,12,44,4,9,2512,539,4136,-215,-664,555,
1363,7,27,2023,12,44,4,19,589,747,4548,-241,-994,481,
1364,7,27,2023,12,44,4,29,3347,-84,3871,-255,-1306,437,
1365,7,27,2023,12,44,4,39,2494,517,4089,-127,-1227,376,
1366,7,27,2023,12,44,4,49,2202,714,4102,-121,-1257,414,
1367,7,27,2023,12,44,4,59,2691,122,3958,-110,-1725,487,
1368,7,27,2023,12,44,4,69,3075,-243,3997,5,-2328,488,
1369,7,27,2023,12,44,4,79,1904,709,4338,132,-3010,506,
1370,7,27,2023,12,44,4,89,1842,163,4701,69,-4041,559,
1371,7,27,2023,12,44,4,99,1627,308,5578,196,-5221,593,
1372,7,27,2023,12,44,4,109,2813,553,3789,54,-6179,640,
1373,7,27,2023,12,44,4,119,1101,821,4329,-254,-7421,738,
1374,7,27,2023,12,44,4,129,2713,314,4445,-605,-8471,996,
1375,7,27,2023,12,44,4,139,2174,561,3338,-657,-9182,1086,
1376,7,27,2023,12,44,4,149,2800,80,2425,-1049,-10237,1457,
1377,7,27,2023,12,44,4,159,3289,-269,2587,-1408,-11066,1514,
1378,7,27,2023,12,44,4,169,3337,-382,3336,-1414,-11452,1379,
1379,7,27,2023,12,44,4,179,3001,221,3196,-1229,-11583,1147,
1380,7,27,2023,12,44,4,189,3245,-575,1938,-1412,-11616,903,
1381,7,27,2023,12,44,4,199,5540,-277,2834,-1142,-11732,664,
1382,7,27,2023,12,44,4,209,4810,441,2231,-1056,-11529,471,
1383,7,27,2023,12,44,4,219,5177,193,2049,-1339,-11298,622,
1384,7,27,2023,12,44,4,229,4680,123,1764,-1129,-10949,535,
1385,7,27,2023,12,44,4,239,5079,524,2773,-1031,-10917,669,
1386,7,27,2023,12,44,4,249,4367,579,2916,-1097,-10871,713,
1387,7,27,2023,12,44,4,259,4364,440,3931,-1224,-11197,783,
1388,7,27,2023,12,44,4,269,3066,82,2698,-1103,-11103,716,
1389,7,27,2023,12,44,4,279,6242,-303,4719,-871,-11761,851,
1390,7,27,2023,12,44,4,289,3326,-604,3369,-210,-11533,761,
1391,7,27,2023,12,44,4,299,5864,-552,4977,533,-12050,1000,
1392,7,27,2023,12,44,4,309,11108,-1630,7353,1620,-10942,1181,
1393,7,27,2023,12,44,4,319,14693,1872,11073,3394,-8533,1685,
1394,7,27,2023,12,44,4,329,10340,4296,10424,2471,-3089,2645,
1395,7,27,2023,12,44,4,339,7079,4028,9204,11,593,3592,
1396,7,27,2023,12,44,4,349,4465,2777,7647,-1635,2378,4068,
1397,7,27,2023,12,44,4,359,2842,1634,6318,-1769,3022,3959,
1398,7,27,2023,12,44,4,369,2409,1349,5588,-796,3336,3398,
1399,7,27,2023,12,44,4,379,2347,1947,5133,478,3812,2620,
1400,7,27,2023,12,44,4,389,2261,3004,4938,1193,4580,1953,
1401,7,27,2023,12,44,4,399,2180,3608,4877,957,5556,1513,
1402,7,27,2023,12,44,4,409,2477,3293,4839,247,6723,1159,
1403,7,27,2023,12,44,4,419,2985,2447,4745,-66,8153,653,
1404,7,27,2023,12,44,4,429,3144,1898,4449,351,9807,2,
1405,7,27,2023,12,44,4,439,2774,1735,3857,1191,11293,-548,
1406,7,27,2023,12,44,4,449,2522,1677,3148,2043,12219,-864,
1407,7,27,2023,12,44,4,459,2527,1769,2617,2717,12578,-1051,
1408,7,27,2023,12,44,4,469,2671,1693,2427,3133,12466,-1295,
1409,7,27,2023,12,44,4,479,3198,1427,2661,3398,12087,-1725,
1410,7,27,2023,12,44,4,489,4084,1304,3243,3649,11832,-2338,
1411,7,27,2023,12,44,4,499,4579,1193,3923,3813,11935,-3036,
1412,7,27,2023,12,44,4,509,4550,759,4544,3831,12241,-3742,
1413,7,27,2023,12,44,4,519,4494,26,4902,3895,12523,-4428,
1414,7,27,2023,12,44,4,529,4565,-311,5190,4138,12717,-4950,
1415,7,27,2023,12,44,4,539,4940,-223,5781,4300,12833,-5178,
1416,7,27,2023,12,44,4,549,6275,-183,5999,4163,12930,-5322,
1417,7,27,2023,12,44,4,559,7895,-338,5137,3788,13096,-5673,
1418,7,27,2023,12,44,4,569,8827,-1423,3711,3222,12997,-6250,
1419,7,27,2023,12,44,4,579,10067,-2718,2115,2871,12543,-6807,
1420,7,27,2023,12,44,4,589,11996,-2869,160,2602,12039,-7006,
1421,7,27,2023,12,44,4,599,13506,-2824,-2221,1748,11497,-6470,
1422,7,27,2023,12,44,4,609,13745,-4035,-4903,573,10475,-5208,
1423,7,27,2023,12,44,4,619,13495,-4901,-7313,212,8761,-3557,
1424,7,27,2023,12,44,4,629,13631,-4585,-9159,731,6694,-1562,
1425,7,27,2023,12,44,4,639,13682,-4016,-10299,1336,4695,313,
1426,7,27,2023,12,44,4,649,12288,-2297,-10872,1229,2628,1314,
1427,7,27,2023,12,44,4,659,11109,-1510,-12958,-555,-327,2123,
1428,7,27,2023,12,44,4,669,14344,-6050,-22711,-3239,-5644,4032,
1429,7,27,2023,12,44,4,679,13272,-7776,-4134,-4643,-13592,6892,
1430,7,27,2023,12,44,4,689,30141,5029,25348,-4074,-9784,5322,
1431,7,27,2023,12,44,4,699,2586,-560,3568,-3485,201,2070,
1432,7,27,2023,12,44,4,709,-2250,-7549,12482,-3128,-2998,1529,
1433,7,27,2023,12,44,4,719,3977,-1056,9697,-301,-1910,1224,
1434,7,27,2023,12,44,4,729,5339,4176,3876,288,-1350,724,
1435,7,27,2023,12,44,4,739,3528,-391,2535,-314,-2230,733,
1436,7,27,2023,12,44,4,749,2551,63,1815,-197,-1832,1060,
1437,7,27,2023,12,44,4,759,2205,-1175,3026,-88,-1758,771,
1438,7,27,2023,12,44,4,769,5414,47,4064,-4,-1312,348,
1439,7,27,2023,12,44,4,779,3008,1796,4664,-22,-928,217,
1440,7,27,2023,12,44,4,789,829,1138,4728,-107,-1189,360,
1441,7,27,2023,12,44,4,799,2419,-176,3930,-99,-1623,409,
1442,7,27,2023,12,44,4,809,3002,283,3703,-22,-1659,259,
1443,7,27,2023,12,44,4,819,2230,136,4797,-15,-1764,214,
1444,7,27,2023,12,44,4,829,1963,491,4960,99,-2111,55,
1445,7,27,2023,12,44,4,839,2385,424,4646,105,-3024,182,
1446,7,27,2023,12,44,4,859,2079,-100,4817,442,-6119,357,
1447,7,27,2023,12,44,4,869,1788,574,4921,451,-7495,321,
1448,7,27,2023,12,44,4,879,1547,310,4334,143,-8654,380,
1449,7,27,2023,12,44,4,889,2220,1076,4027,-90,-9815,543,
1450,7,27,2023,12,44,4,899,2298,1492,4417,-580,-10918,1139,
1451,7,27,2023,12,44,4,909,2836,238,3365,-1004,-11657,1272,
1452,7,27,2023,12,44,4,919,2221,-197,2916,-1051,-12062,1251,
1453,7,27,2023,12,44,4,929,4993,-319,2151,-749,-12674,1067,
1454,7,27,2023,12,44,4,939,4859,-779,2606,-685,-12909,634,
1455,7,27,2023,12,44,4,949,3960,-481,2312,-344,-12972,82,
1456,7,27,2023,12,44,4,959,5076,-565,2422,-1,-12816,-465,
1457,7,27,2023,12,44,4,969,5272,329,3298,405,-11892,-811,
1458,7,27,2023,12,44,4,979,4337,702,2715,-68,-11217,-492,
1459,7,27,2023,12,44,4,989,4280,177,2542,-492,-10661,-406,
1460,7,27,2023,12,44,4,999,4040,911,2110,-511,-10500,-272,
1461,7,27,2023,12,44,5,9,4494,301,1656,-917,-10866,16,
1462,7,27,2023,12,44,5,19,5688,-317,2717,-900,-11191,224,
1463,7,27,2023,12,44,5,29,5206,-912,2959,-228,-10645,0,
1464,7,27,2023,12,44,5,39,4935,-528,3997,867,-10272,-183,
1465,7,27,2023,12,44,5,49,9885,-917,7127,2115,-9580,618,
1466,7,27,2023,12,44,5,59,9230,-39,8572,2829,-6801,2081,
1467,7,27,2023,12,44,5,69,6909,770,7974,3102,-3201,3216,
1468,7,27,2023,12,44,5,79,5956,1733,7704,2965,-1105,4283,
1469,7,27,2023,12,44,5,89,5558,2910,7709,2416,-109,5208,
1470,7,27,2023,12,44,5,99,5205,4050,7607,1282,514,5810,
1471,7,27,2023,12,44,5,109,4872,4565,7283,-274,1263,6059,
1472,7,27,2023,12,44,5,119,4375,4318,6793,-1669,2309,5954,
1473,7,27,2023,12,44,5,129,3535,3503,6128,-2363,3501,5457,
1474,7,27,2023,12,44,5,139,2544,2758,5326,-2166,4664,4664,
1475,7,27,2023,12,44,5,149,2041,2483,4681,-1346,5698,3717,
1476,7,27,2023,12,44,5,159,1964,2840,4222,-440,6697,2794,
1477,7,27,2023,12,44,5,169,1771,3413,3772,-2,7732,2038,
1478,7,27,2023,12,44,5,179,1695,3541,3379,-113,8668,1505,
1479,7,27,2023,12,44,5,189,2050,3103,3204,-308,9491,1085,
1480,7,27,2023,12,44,5,199,2580,2617,3092,-102,10358,622,
1481,7,27,2023,12,44,5,209,2844,2504,2767,502,11235,111,
1482,7,27,2023,12,44,5,219,2964,2684,2468,1166,11851,-384,
1483,7,27,2023,12,44,5,229,3308,2601,2335,1658,12068,-905,
1484,7,27,2023,12,44,5,239,3663,2466,2429,2071,12055,-1547,
1485,7,27,2023,12,44,5,249,4218,2665,2747,2422,11982,-2286,
1486,7,27,2023,12,44,5,259,4848,3134,3291,2446,11971,-3084,
1487,7,27,2023,12,44,5,269,5163,3057,3905,2040,12049,-3944,
1488,7,27,2023,12,44,5,279,5382,2362,4629,1673,12181,-4842,
1489,7,27,2023,12,44,5,289,5768,1524,5219,1793,12386,-5708,
1490,7,27,2023,12,44,5,299,6248,1069,5577,2366,12690,-6377,
1491,7,27,2023,12,44,5,309,7002,1011,5633,3016,12942,-6752,
1492,7,27,2023,12,44,5,319,8124,1333,5392,3391,13061,-6884,
1493,7,27,2023,12,44,5,329,9243,1540,4880,3226,12976,-6836,
1494,7,27,2023,12,44,5,339,10654,1227,3844,2755,12718,-6638,
1495,7,27,2023,12,44,5,349,11477,-1865,1824,2487,12250,-6554,
1496,7,27,2023,12,44,5,359,13220,-2997,-158,3392,11445,-6893,
1497,7,27,2023,12,44,5,369,14781,-2766,-2543,4273,10550,-6520,
1498,7,27,2023,12,44,5,379,14922,-3828,-5548,4172,9356,-5296,
1499,7,27,2023,12,44,5,389,14440,-4849,-8976,3844,7703,-3688,
1500,7,27,2023,12,44,5,399,13316,-3806,-11291,3201,5317,-1693,
1501,7,27,2023,12,44,5,409,12347,-2307,-11809,1487,2364,564,
1502,7,27,2023,12,44,5,419,12459,-2545,-10870,-1258,-758,2298,
1503,7,27,2023,12,44,5,429,14398,-2138,-12827,-3545,-3749,3345,
1504,7,27,2023,12,44,5,439,9646,-8076,-15819,-6213,-8476,4805,
1505,7,27,2023,12,44,5,449,13309,-7929,10246,-5465,-12400,4371,
1506,7,27,2023,12,44,5,459,20311,-5849,19544,-2662,-7125,1966,
1507,7,27,2023,12,44,5,469,6200,-2165,4799,-1965,-2233,2739,
1508,7,27,2023,12,44,5,479,6523,3308,9258,-2390,-3771,2122,
1509,7,27,2023,12,44,5,489,2542,-1754,7316,-922,-1778,274,
1510,7,27,2023,12,44,5,499,3662,794,3766,286,-628,484,
1511,7,27,2023,12,44,5,509,2676,1885,2340,-89,-1103,732,
1512,7,27,2023,12,44,5,519,2278,392,2608,-429,-1208,1054,
1513,7,27,2023,12,44,5,529,2806,319,3560,-390,-934,1100,
1514,7,27,2023,12,44,5,539,2655,-97,4745,-388,-463,808,
1515,7,27,2023,12,44,5,549,4005,629,4504,-406,-551,732,
1516,7,27,2023,12,44,5,559,2217,226,4421,-342,-947,650,
1517,7,27,2023,12,44,5,569,2628,237,4018,-234,-1213,581,
1518,7,27,2023,12,44,5,579,3085,464,3620,-176,-1164,545,
1519,7,27,2023,12,44,5,589,1658,447,4595,-124,-1278,483,
1520,7,27,2023,12,44,5,599,2271,19,4736,-41,-1749,449,
1521,7,27,2023,12,44,5,609,2079,481,4852,101,-2358,452,
1522,7,27,2023,12,44,5,619,2425,652,4499,173,-3164,566,
1523,7,27,2023,12,44,5,629,2583,-377,4336,56,-4391,600,
1524,7,27,2023,12,44,5,639,2472,-203,4584,182,-5850,561,
1525,7,27,2023,12,44,5,649,1471,651,4638,186,-7072,469,
1526,7,27,2023,12,44,5,659,1809,461,4088,-157,-8215,576,
1527,7,27,2023,12,44,5,669,2282,607,4182,-426,-9384,708,
1528,7,27,2023,12,44,5,679,2425,714,4472,-585,-10457,1051,
1529,7,27,2023,12,44,5,689,2230,242,3380,-928,-11261,1219,
1530,7,27,2023,12,44,5,699,2779,-718,3037,-1181,-11949,1268,
1531,7,27,2023,12,44,5,719,4350,-831,2357,-977,-12954,774,
1532,7,27,2023,12,44,5,729,4227,-785,2537,-380,-13060,10,
1533,7,27,2023,12,44,5,739,4826,347,2214,41,-12920,-280,
1534,7,27,2023,12,44,5,749,5363,-352,2599,24,-12145,-551,
1535,7,27,2023,12,44,5,759,5021,586,2888,149,-11300,-537,
1536,7,27,2023,12,44,5,769,4217,475,2540,3,-10396,-492,
1537,7,27,2023,12,44,5,779,4621,682,2046,-99,-9921,-226,
1538,7,27,2023,12,44,5,789,4126,425,1243,-210,-9985,31,
1539,7,27,2023,12,44,5,799,5286,204,2535,-406,-10442,560,
1540,7,27,2023,12,44,5,809,5380,-370,3156,-354,-10368,788,
1541,7,27,2023,12,44,5,819,5150,-1058,4965,267,-10126,823,
1542,7,27,2023,12,44,5,829,8790,-2585,7659,1753,-8947,1740,
1543,7,27,2023,12,44,5,839,8112,-1223,8749,3112,-6823,3377,
1544,7,27,2023,12,44,5,849,6395,-358,8175,3787,-3986,4660,
1545,7,27,2023,12,44,5,859,6042,873,8047,3936,-2359,5664,
1546,7,27,2023,12,44,5,869,6060,2790,8198,3504,-1364,6307,
1547,7,27,2023,12,44,5,879,6161,4339,8187,2075,-392,6559,
1548,7,27,2023,12,44,5,889,5997,5161,7880,134,987,6314,
1549,7,27,2023,12,44,5,899,4592,4911,7022,-1622,2596,5588,
1550,7,27,2023,12,44,5,909,2900,3824,5877,-2559,3791,4583,
1551,7,27,2023,12,44,5,919,1787,2882,4853,-2286,4550,3366,
1552,7,27,2023,12,44,5,929,1571,2537,4222,-1204,5146,2064,
1553,7,27,2023,12,44,5,939,1549,2870,3912,13,5823,838,
1554,7,27,2023,12,44,5,949,1609,3251,3861,749,6632,-108,
1555,7,27,2023,12,44,5,959,2044,3212,3937,885,7583,-755,
1556,7,27,2023,12,44,5,969,2414,2830,3879,818,8728,-1202,
1557,7,27,2023,12,44,5,979,2564,2220,3618,951,9869,-1515,
1558,7,27,2023,12,44,5,989,2764,1788,3217,1465,10786,-1802,
1559,7,27,2023,12,44,5,999,2831,1633,2851,2151,11348,-2128,
1560,7,27,2023,12,44,6,9,3042,1638,2702,2723,11505,-2464,
1561,7,27,2023,12,44,6,19,3690,1764,2919,3035,11448,-2800,
1562,7,27,2023,12,44,6,29,4351,1914,3410,3041,11470,-3180,
1563,7,27,2023,12,44,6,39,4881,1684,4136,2816,11682,-3691,
1564,7,27,2023,12,44,6,49,5157,1113,4858,2701,12088,-4357,
1565,7,27,2023,12,44,6,59,5477,816,5243,2862,12581,-5004,
1566,7,27,2023,12,44,6,69,5669,702,5535,3092,13025,-5414,
1567,7,27,2023,12,44,6,79,5936,660,5945,3266,13344,-5480,
1568,7,27,2023,12,44,6,89,6596,639,6460,3419,13561,-5336,
1569,7,27,2023,12,44,6,99,8129,632,6522,3609,13706,-5260,
1570,7,27,2023,12,44,6,109,9205,253,5488,3794,13836,-5400,
1571,7,27,2023,12,44,6,119,9232,-1607,3784,3984,13525,-5940,
1572,7,27,2023,12,44,6,129,10588,-2855,1750,4446,12572,-6733,
1573,7,27,2023,12,44,6,139,12706,-2596,-544,4614,11500,-6841,
1574,7,27,2023,12,44,6,149,13319,-2902,-3121,3748,10448,-5785,
1575,7,27,2023,12,44,6,159,13254,-4694,-5827,2604,8931,-3944,
1576,7,27,2023,12,44,6,169,13985,-5231,-8555,2211,6928,-2017,
1577,7,27,2023,12,44,6,179,13724,-4313,-10643,1926,4778,-213,
1578,7,27,2023,12,44,6,189,12305,-3101,-10918,801,2357,872,
1579,7,27,2023,12,44,6,199,11397,-2133,-9845,-884,-230,991,
1580,7,27,2023,12,44,6,209,10361,-2228,-10769,-2567,-2852,1016,
1581,7,27,2023,12,44,6,219,12774,-5969,-19153,-4104,-7280,2464,
1582,7,27,2023,12,44,6,229,11202,-8260,-2251,-5499,-14199,5584,
1583,7,27,2023,12,44,6,239,28952,-1255,25484,-4426,-11732,5550,
1584,7,27,2023,12,44,6,249,7014,122,6836,-3949,-2584,4125,
1585,7,27,2023,12,44,6,259,2870,-3016,10832,-3236,-4362,2649,
1586,7,27,2023,12,44,6,269,3200,-2197,9451,-1180,-2156,1666,
1587,7,27,2023,12,44,6,279,6091,3336,4184,-354,-1235,1462,
1588,7,27,2023,12,44,6,289,4762,496,1774,-549,-1979,1364,
1589,7,27,2023,12,44,6,299,3098,-967,1210,-395,-1944,1622,
1590,7,27,2023,12,44,6,309,2392,-1680,3270,-143,-1744,1070,
1591,7,27,2023,12,44,6,319,3886,890,4750,-75,-987,471,
1592,7,27,2023,12,44,6,329,2983,2131,5094,-176,-524,386,
1593,7,27,2023,12,44,6,339,1547,555,5052,-297,-1001,673,
1594,7,27,2023,12,44,6,349,2749,163,4458,-196,-1461,696,
1595,7,27,2023,12,44,6,359,3559,-165,4150,-141,-1881,688,
1596,7,27,2023,12,44,6,369,3161,-7,4679,-34,-2381,584,
1597,7,27,2023,12,44,6,379,1443,604,5242,-42,-3175,538,
1598,7,27,2023,12,44,6,389,1722,100,5064,-106,-4667,645,
1599,7,27,2023,12,44,6,399,1587,198,5365,115,-6404,597,
1600,7,27,2023,12,44,6,409,1969,392,5611,46,-8194,670,
1601,7,27,2023,12,44,6,419,1940,953,4846,-306,-9714,739,
1602,7,27,2023,12,44,6,429,1606,725,4175,-655,-11027,985,
1603,7,27,2023,12,44,6,439,3214,100,3019,-979,-12548,1408,
1604,7,27,2023,12,44,6,449,3392,-235,3273,-1445,-13651,1562,
1605,7,27,2023,12,44,6,459,3510,-296,3294,-1264,-14002,1278,
1606,7,27,2023,12,44,6,469,4234,-685,3643,-986,-14200,1069,
1607,7,27,2023,12,44,6,479,4119,-566,1794,-79,-13808,521,
1608,7,27,2023,12,44,6,489,6644,237,2690,636,-13446,84,
1609,7,27,2023,12,44,6,499,4950,-392,2270,941,-11983,-159,
1610,7,27,2023,12,44,6,509,4608,-178,1034,1555,-10814,-232,
1611,7,27,2023,12,44,6,519,5512,472,998,1941,-10066,-52,
1612,7,27,2023,12,44,6,529,5085,634,1007,1820,-8806,273,
1613,7,27,2023,12,44,6,539,3958,213,382,1298,-8008,867,
1614,7,27,2023,12,44,6,549,4089,-1033,366,815,-7869,1532,
1615,7,27,2023,12,44,6,559,6528,-1749,1519,1037,-8299,2324,
1616,7,27,2023,12,44,6,579,6614,1593,5438,1099,-6219,3055,
1617,7,27,2023,12,44,6,589,5550,953,5900,-225,-4961,3085,
1618,7,27,2023,12,44,6,599,4619,350,6084,-1016,-4287,2863,
1619,7,27,2023,12,44,6,609,4147,184,6285,-1119,-3980,2524,
1620,7,27,2023,12,44,6,619,4294,345,6624,-897,-3881,2287,
1621,7,27,2023,12,44,6,629,4339,1055,7038,-694,-3759,2354,
1622,7,27,2023,12,44,6,639,4478,1928,7560,-874,-3628,2767,
1623,7,27,2023,12,44,6,649,5178,2630,8298,-1515,-3418,3277,
1624,7,27,2023,12,44,6,659,5817,3176,8802,-2378,-2795,3557,
1625,7,27,2023,12,44,6,669,5901,3556,8808,-3206,-1516,3535,
1626,7,27,2023,12,44,6,679,5315,3278,8227,-3805,150,3375,
1627,7,27,2023,12,44,6,689,4091,2755,7274,-3725,1880,3133,
1628,7,27,2023,12,44,6,699,2767,2385,6128,-2948,3388,2836,
1629,7,27,2023,12,44,6,709,2129,2336,5168,-1856,4607,2561,
1630,7,27,2023,12,44,6,719,1917,2751,4596,-823,5767,2322,
1631,7,27,2023,12,44,6,729,2076,3233,4272,-174,6996,2085,
1632,7,27,2023,12,44,6,739,2531,3379,3973,117,8344,1824,
1633,7,27,2023,12,44,6,749,2863,3234,3617,359,9768,1508,
1634,7,27,2023,12,44,6,759,3032,2966,3183,808,11073,1097,
1635,7,27,2023,12,44,6,769,3138,2936,2654,1480,12107,622,
1636,7,27,2023,12,44,6,779,3235,3183,2354,2144,12723,104,
1637,7,27,2023,12,44,6,789,3623,3206,2503,2548,12916,-581,
1638,7,27,2023,12,44,6,799,4463,2963,2932,2841,12973,-1502,
1639,7,27,2023,12,44,6,809,5040,2796,3418,3187,13156,-2654,
1640,7,27,2023,12,44,6,819,5162,2364,3998,3417,13363,-3970,
1641,7,27,2023,12,44,6,829,5229,1447,4692,3578,13490,-5311,
1642,7,27,2023,12,44,6,839,5292,472,5564,3870,13606,-6511,
1643,7,27,2023,12,44,6,849,5997,-217,6494,4202,13706,-7441,
1644,7,27,2023,12,44,6,859,7708,-312,7145,4408,13946,-8034,
1645,7,27,2023,12,44,6,869,9899,465,6948,4091,14432,-8276,
1646,7,27,2023,12,44,6,879,10999,-35,5860,2864,14798,-8171,
1647,7,27,2023,12,44,6,889,11614,-2400,4263,1754,14613,-7964,
1648,7,27,2023,12,44,6,899,13095,-3686,2135,1867,14027,-7774,
1649,7,27,2023,12,44,6,909,14627,-2861,-395,2425,13237,-7012,
1650,7,27,2023,12,44,6,919,14856,-2642,-2767,2161,12012,-5215,
1651,7,27,2023,12,44,6,929,14763,-4436,-5184,1767,10210,-2745,
1652,7,27,2023,12,44,6,939,15336,-6092,-7859,2630,8273,-557,
1653,7,27,2023,12,44,6,949,14303,-4261,-10296,3714,6411,720,
1654,7,27,2023,12,44,6,959,11799,-802,-11380,2567,4214,1456,
1655,7,27,2023,12,44,6,969,11549,-41,-10553,-854,1471,2021,
1656,7,27,2023,12,44,6,979,11673,-2213,-8886,-3006,-727,1983,
1657,7,27,2023,12,44,6,989,9735,-2231,-7566,-2028,-2025,878,
1658,7,27,2023,12,44,6,999,8204,-28,-11154,-990,-4054,130,
1659,7,27,2023,12,44,7,9,1985,-2640,-12532,-3108,-9692,1919,
1660,7,27,2023,12,44,7,19,19610,-3728,15572,-4085,-14348,3803,
1661,7,27,2023,12,44,7,29,25280,-1344,16584,-4139,-6754,3915,
1662,7,27,2023,12,44,7,39,4288,-1847,6047,-2374,-1755,2605,
1663,7,27,2023,12,44,7,49,-1207,-4709,11865,-1162,-1553,856,
1664,7,27,2023,12,44,7,59,3985,3237,6809,481,-766,707,
1665,7,27,2023,12,44,7,69,5094,1490,3100,56,-1637,565,
1666,7,27,2023,12,44,7,79,4731,-907,1386,-35,-1929,745,
1667,7,27,2023,12,44,7,89,1914,-347,2371,105,-1633,771,
1668,7,27,2023,12,44,7,99,2630,-374,3495,190,-1257,212,
1669,7,27,2023,12,44,7,109,3334,2358,4469,55,-509,178,
1670,7,27,2023,12,44,7,119,1960,1324,4853,-159,-544,366,
1671,7,27,2023,12,44,7,129,1750,719,4617,-212,-1002,526,
1672,7,27,2023,12,44,7,139,3267,26,3951,-222,-1395,590,
1673,7,27,2023,12,44,7,149,4426,268,4115,-200,-1843,621,
1674,7,27,2023,12,44,7,159,2408,80,4569,-106,-2219,585,
1675,7,27,2023,12,44,7,169,959,138,4984,87,-3072,537,
1676,7,27,2023,12,44,7,179,1438,640,5502,148,-4355,624,
1677,7,27,2023,12,44,7,189,1906,-128,4762,136,-5843,663,
1678,7,27,2023,12,44,7,199,847,272,5431,386,-7821,613,
1679,7,27,2023,12,44,7,209,1999,762,4778,111,-9450,785,
1680,7,27,2023,12,44,7,219,2350,470,3703,-238,-11044,948,
1681,7,27,2023,12,44,7,229,2271,475,3671,-678,-12602,1344,
1682,7,27,2023,12,44,7,239,2855,409,3644,-1107,-13462,1485,
1683,7,27,2023,12,44,7,249,2594,-799,3816,-1349,-14000,1289,
1684,7,27,2023,12,44,7,259,2660,-395,2362,-790,-14358,542,
1685,7,27,2023,12,44,7,269,5543,-1352,3192,-396,-14748,-177,
1686,7,27,2023,12,44,7,279,5327,-697,2405,203,-14678,-798,
1687,7,27,2023,12,44,7,289,5596,-479,1630,734,-14495,-1381,
1688,7,27,2023,12,44,7,299,6425,357,2790,1158,-13936,-1479,
1689,7,27,2023,12,44,7,309,4025,742,2342,918,-12872,-1119,
1690,7,27,2023,12,44,7,319,4388,737,2767,710,-12393,-860,
1691,7,27,2023,12,44,7,329,4714,1061,2915,555,-11868,-616,
1692,7,27,2023,12,44,7,339,4859,1327,3509,24,-11818,-155,
1693,7,27,2023,12,44,7,349,5476,-796,3196,-595,-11523,333,
1694,7,27,2023,12,44,7,359,6128,-1086,3701,43,-11544,282,
1695,7,27,2023,12,44,7,369,7877,-1304,5515,1225,-10540,19,
1696,7,27,2023,12,44,7,379,11706,-482,9373,2587,-9074,753,
1697,7,27,2023,12,44,7,389,7978,-157,8962,2515,-4729,1997,
1698,7,27,2023,12,44,7,399,6304,1,8341,2130,-1875,2994,
1699,7,27,2023,12,44,7,409,5743,818,7923,2040,-490,3716,
1700,7,27,2023,12,44,7,419,5774,2475,7939,1770,421,4342,
1701,7,27,2023,12,44,7,439,4836,4732,7360,-1074,2156,5333,
1702,7,27,2023,12,44,7,449,4541,4207,6919,-2716,3129,5449,
1703,7,27,2023,12,44,7,459,4043,3378,6405,-3305,4364,5138,
1704,7,27,2023,12,44,7,469,3227,2773,5657,-2716,5793,4507,
1705,7,27,2023,12,44,7,479,2825,2554,4999,-1433,7145,3781,
1706,7,27,2023,12,44,7,489,2615,3047,4476,-40,8470,3101,
1707,7,27,2023,12,44,7,499,2469,3757,4033,757,9716,2563,
1708,7,27,2023,12,44,7,509,2471,3974,3589,831,10833,2181,
1709,7,27,2023,12,44,7,519,2685,3434,3170,743,11820,1856,
1710,7,27,2023,12,44,7,529,2891,2617,2686,1178,12641,1408,
1711,7,27,2023,12,44,7,539,3193,2415,2242,2248,13220,765,
1712,7,27,2023,12,44,7,549,3392,2858,2164,3311,13508,-46,
1713,7,27,2023,12,44,7,559,3684,3068,2314,3783,13531,-1002,
1714,7,27,2023,12,44,7,569,3987,2766,2625,3788,13394,-2077,
1715,7,27,2023,12,44,7,579,4075,2095,3219,3719,13189,-3250,
1716,7,27,2023,12,44,7,589,4361,1363,4204,3780,12977,-4447,
1717,7,27,2023,12,44,7,599,5071,681,5228,3937,12935,-5562,
1718,7,27,2023,12,44,7,609,5782,480,6112,4047,13189,-6445,
1719,7,27,2023,12,44,7,619,6451,663,7002,3845,13602,-6971,
1720,7,27,2023,12,44,7,629,7607,400,7455,3200,13932,-7307,
1721,7,27,2023,12,44,7,639,9806,-282,6547,2452,14143,-7665,
1722,7,27,2023,12,44,7,649,11229,-1504,4854,1893,14086,-7859,
1723,7,27,2023,12,44,7,659,12315,-2603,2826,1813,13642,-7743,
1724,7,27,2023,12,44,7,669,14054,-2768,95,1876,12873,-7286,
1725,7,27,2023,12,44,7,679,15171,-2628,-3103,1655,11880,-6201,
1726,7,27,2023,12,44,7,689,15095,-2626,-6049,1104,10486,-4315,
1727,7,27,2023,12,44,7,699,15596,-3399,-8655,765,8545,-1763,
1728,7,27,2023,12,44,7,709,16247,-4295,-11115,1438,6656,395,
1729,7,27,2023,12,44,7,719,14486,-2532,-12624,2080,4581,1182,
1730,7,27,2023,12,44,7,729,11924,-430,-12282,878,1719,1171,
1731,7,27,2023,12,44,7,739,11558,-120,-10711,-1577,-1470,751,
1732,7,27,2023,12,44,7,749,12224,-3155,-13012,-2839,-4399,594,
1733,7,27,2023,12,44,7,759,6468,-2524,-14638,-2045,-9273,1759,
1734,7,27,2023,12,44,7,769,12749,-1003,10718,-3118,-13813,3479,
1735,7,27,2023,12,44,7,779,25065,-1867,19706,-3313,-8946,3506,
1736,7,27,2023,12,44,7,789,9095,-259,5451,-3077,-3074,3714,
1737,7,27,2023,12,44,7,799,4069,-382,11027,-2908,-3407,2395,
1738,7,27,2023,12,44,7,809,2614,-1413,8949,-311,-1262,1093,
1739,7,27,2023,12,44,7,819,4598,1180,3711,310,-1270,1028,
1740,7,27,2023,12,44,7,829,1607,206,3170,67,-1955,955,
1741,7,27,2023,12,44,7,839,2679,-759,2403,182,-1935,1063,
1742,7,27,2023,12,44,7,849,3231,-1314,2841,329,-1983,503,
1743,7,27,2023,12,44,7,859,4077,2032,3741,316,-1459,216,
1744,7,27,2023,12,44,7,869,2404,2524,4340,65,-1141,537,
1745,7,27,2023,12,44,7,879,1636,829,4541,-26,-1476,810,
1746,7,27,2023,12,44,7,889,2958,-162,4114,-29,-1671,770,
1747,7,27,2023,12,44,7,899,2400,359,4839,-6,-1798,724,
1748,7,27,2023,12,44,7,909,2368,555,4842,20,-2023,705,
1749,7,27,2023,12,44,7,919,2525,631,4579,17,-2981,739,
1750,7,27,2023,12,44,7,929,2682,243,4530,-107,-4518,931,
1751,7,27,2023,12,44,7,939,951,-235,4969,91,-6095,824,
1752,7,27,2023,12,44,7,949,1613,126,4871,394,-7718,643,
1753,7,27,2023,12,44,7,959,1949,369,4441,160,-9079,571,
1754,7,27,2023,12,44,7,969,1491,587,5215,-87,-10591,721,
1755,7,27,2023,12,44,7,979,1720,447,4604,-570,-11717,981,
1756,7,27,2023,12,44,7,989,2861,204,2949,-887,-12572,1155,
1757,7,27,2023,12,44,7,999,3677,-1014,2406,-1148,-13607,1106,
1758,7,27,2023,12,44,8,9,3407,-647,2454,-662,-14350,388,
1759,7,27,2023,12,44,8,19,4174,-1091,2994,-59,-14661,-512,
1760,7,27,2023,12,44,8,29,4789,-1170,2842,584,-14764,-1271,
1761,7,27,2023,12,44,8,39,5722,-613,2675,1260,-14679,-2078,
1762,7,27,2023,12,44,8,49,4979,28,3340,1638,-13571,-2503,
1763,7,27,2023,12,44,8,59,4533,293,2098,1070,-12613,-2017,
1764,7,27,2023,12,44,8,69,4633,-242,502,679,-12452,-1753,
1765,7,27,2023,12,44,8,79,5503,977,1916,590,-12415,-1565,
1766,7,27,2023,12,44,8,89,4709,1962,2089,-523,-11989,-853,
1767,7,27,2023,12,44,8,99,6260,1113,3554,-2090,-11824,-109,
1768,7,27,2023,12,44,8,109,5359,-879,2838,-2649,-10903,81,
1769,7,27,2023,12,44,8,119,6652,-880,4533,-1732,-10408,-434,
1770,7,27,2023,12,44,8,129,8812,-1115,5424,-628,-9405,-565,
1771,7,27,2023,12,44,8,139,9850,-1381,8199,825,-8044,115,
1772,7,27,2023,12,44,8,149,7838,-1465,8231,1634,-4317,1171,
1773,7,27,2023,12,44,8,159,6454,-1315,7803,2543,-1978,2273,
1774,7,27,2023,12,44,8,169,6230,-71,7608,3552,-684,3446,
1775,7,27,2023,12,44,8,179,6513,1989,7812,3911,413,4666,
1776,7,27,2023,12,44,8,189,6660,3974,7949,3088,1658,5744,
1777,7,27,2023,12,44,8,199,6219,5094,7592,1215,3053,6478,
1778,7,27,2023,12,44,8,209,5168,4631,7044,-847,4365,6798,
1779,7,27,2023,12,44,8,219,4127,3897,6344,-1910,5575,6617,
1780,7,27,2023,12,44,8,229,3123,3301,5490,-1874,6717,6014,
1781,7,27,2023,12,44,8,239,2628,2991,4803,-1165,7795,5204,
1782,7,27,2023,12,44,8,249,2208,3483,4289,-225,8860,4279,
1783,7,27,2023,12,44,8,259,1872,4380,3852,182,9825,3361,
1784,7,27,2023,12,44,8,269,2030,4675,3649,-200,10617,2608,
1785,7,27,2023,12,44,8,279,2483,3834,3556,-623,11391,1904,
1786,7,27,2023,12,44,8,299,2968,2892,3214,798,13085,-20,
1787,7,27,2023,12,44,8,309,3281,3177,3114,1760,13553,-1031,
1788,7,27,2023,12,44,8,319,3623,3265,3084,2272,13757,-1917,
1789,7,27,2023,12,44,8,329,3853,2898,3309,2448,13742,-2699,
1790,7,27,2023,12,44,8,339,4304,2065,4012,2617,13617,-3493,
1791,7,27,2023,12,44,8,349,4913,1277,4865,3023,13601,-4309,
1792,7,27,2023,12,44,8,359,5474,945,5604,3545,13855,-5001,
1793,7,27,2023,12,44,8,369,5754,584,6601,3800,14171,-5509,
1794,7,27,2023,12,44,8,379,6870,247,7525,3914,14426,-5812,
1795,7,27,2023,12,44,8,389,9506,402,6994,3963,14859,-6036,
1796,7,27,2023,12,44,8,399,10958,350,5408,3459,15190,-6183,
1797,7,27,2023,12,44,8,409,11561,-721,3672,2661,14947,-6140,
1798,7,27,2023,12,44,8,419,13537,-1983,1356,2165,14232,-6128,
1799,7,27,2023,12,44,8,429,15534,-2377,-1537,2098,13509,-5939,
1800,7,27,2023,12,44,8,439,15746,-2863,-4653,2001,12488,-5210,
1801,7,27,2023,12,44,8,449,15763,-3422,-7645,1920,10641,-3884,
1802,7,27,2023,12,44,8,459,16427,-4022,-10778,2134,8290,-2018,
1803,7,27,2023,12,44,8,469,16310,-3727,-12757,2413,5752,-340,
1804,7,27,2023,12,44,8,479,14413,-2232,-12835,1776,2930,757,
1805,7,27,2023,12,44,8,489,13261,-1511,-11233,169,83,1337,
1806,7,27,2023,12,44,8,499,12387,-1296,-9190,-1101,-2084,1419,
1807,7,27,2023,12,44,8,509,10866,-2219,-12373,-1443,-4340,1823,
1808,7,27,2023,12,44,8,519,4646,-2530,-7249,-2115,-9115,3068,
1809,7,27,2023,12,44,8,529,11128,-602,15299,-2594,-11431,2972,
1810,7,27,2023,12,44,8,539,18703,-805,14768,-2250,-7233,2749,
1811,7,27,2023,12,44,8,549,10123,801,8058,-3209,-4419,3801,
1812,7,27,2023,12,44,8,559,2359,395,10564,-2701,-3641,2230,
1813,7,27,2023,12,44,8,569,4885,-1859,6261,-511,-1775,1169,
1814,7,27,2023,12,44,8,579,6364,664,2668,236,-1566,1069,
1815,7,27,2023,12,44,8,589,3877,74,2792,24,-1511,994,
1816,7,27,2023,12,44,8,599,874,-491,3590,225,-1456,877,
1817,7,27,2023,12,44,8,609,1614,77,3569,287,-1310,374,
1818,7,27,2023,12,44,8,619,3451,2011,4746,64,-906,354,
1819,7,27,2023,12,44,8,629,2301,1746,4514,-116,-660,627,
1820,7,27,2023,12,44,8,639,2808,313,3845,-182,-1108,847,
1821,7,27,2023,12,44,8,649,3705,-513,3550,-142,-1407,716,
1822,7,27,2023,12,44,8,659,2617,555,4253,-79,-1420,588,
1823,7,27,2023,12,44,8,669,2396,1318,4667,-59,-1627,652,
1824,7,27,2023,12,44,8,679,551,906,5779,23,-2334,799,
1825,7,27,2023,12,44,8,689,3010,781,4818,1,-3305,1016,
1826,7,27,2023,12,44,8,699,1229,53,4695,-130,-4490,1148,
1827,7,27,2023,12,44,8,709,1516,-687,4869,75,-5959,1106,
1828,7,27,2023,12,44,8,719,2535,295,4141,183,-7535,1001,
1829,7,27,2023,12,44,8,729,2267,33,4053,-189,-9156,1052,
1830,7,27,2023,12,44,8,739,1675,721,3834,-423,-10357,1064,
1831,7,27,2023,12,44,8,749,1711,411,3679,-850,-11312,1124,
1832,7,27,2023,12,44,8,759,2491,346,3989,-1171,-12018,1275,
1833,7,27,2023,12,44,8,769,3164,-717,3217,-1269,-12448,1103,
1834,7,27,2023,12,44,8,779,2483,-250,3003,-1061,-12733,776,
1835,7,27,2023,12,44,8,789,4607,-1147,2540,-877,-12977,498,
1836,7,27,2023,12,44,8,799,4633,-1065,1115,-235,-13175,-279,
1837,7,27,2023,12,44,8,809,6059,-919,1967,99,-13722,-897,
1838,7,27,2023,12,44,8,819,5033,-179,3095,550,-13131,-1517,
1839,7,27,2023,12,44,8,829,3170,-106,2969,389,-12519,-1552,
1840,7,27,2023,12,44,8,839,2989,-374,1749,317,-12423,-1695,
1841,7,27,2023,12,44,8,849,5532,69,3228,431,-13038,-1731,
1842,7,27,2023,12,44,8,859,2819,594,2369,237,-12884,-1583,
1843,7,27,2023,12,44,8,869,4372,397,2031,-256,-13271,-1291,
1844,7,27,2023,12,44,8,879,5574,737,1767,-429,-13730,-1033,
1845,7,27,2023,12,44,8,889,7588,-11,2362,-905,-13505,-483,
1846,7,27,2023,12,44,8,899,8031,-66,3659,-910,-12408,-368,
1847,7,27,2023,12,44,8,909,7534,-772,5427,-490,-10167,-367,
1848,7,27,2023,12,44,8,919,14100,-974,9673,830,-8288,468,
1849,7,27,2023,12,44,8,929,10103,-221,9269,1732,-3339,1664,
1850,7,27,2023,12,44,8,939,8028,1058,8683,2014,302,2790,
1851,7,27,2023,12,44,8,949,6495,2311,8178,1779,1974,3796,
1852,7,27,2023,12,44,8,959,5732,3857,7771,961,2954,4652,
1853,7,27,2023,12,44,8,969,5694,4501,7426,-517,3913,5314,
1854,7,27,2023,12,44,8,979,5062,4009,6902,-1888,5183,5563,
1855,7,27,2023,12,44,8,989,3906,3132,6265,-2401,6690,5302,
1856,7,27,2023,12,44,8,999,2620,2641,5341,-1984,8158,4750,
1857,7,27,2023,12,44,9,9,1612,2635,4534,-1142,9317,4273,
1858,7,27,2023,12,44,9,19,1435,2848,4047,-401,10160,3979,
1859,7,27,2023,12,44,9,29,1816,3119,3791,113,10935,3692,
1860,7,27,2023,12,44,9,39,2480,3248,3693,468,11834,3316,
1861,7,27,2023,12,44,9,49,2958,3145,3485,840,12896,2845,
1862,7,27,2023,12,44,9,59,3125,2861,2993,1430,13899,2251,
1863,7,27,2023,12,44,9,69,3208,2622,2369,2255,14516,1527,
1864,7,27,2023,12,44,9,79,3325,2476,2016,3152,14566,693,
1865,7,27,2023,12,44,9,89,3915,2541,2104,3977,14222,-201,
1866,7,27,2023,12,44,9,99,4596,2834,2535,4458,13834,-1169,
1867,7,27,2023,12,44,9,109,4990,2781,3225,4434,13530,-2215,
1868,7,27,2023,12,44,9,119,5174,2034,4183,4179,13296,-3362,
1869,7,27,2023,12,44,9,129,5641,1532,5155,4170,13239,-4549,
1870,7,27,2023,12,44,9,139,6361,1430,6266,4217,13387,-5635,
1871,7,27,2023,12,44,9,159,10030,571,5541,3628,13809,-7691,
1872,7,27,2023,12,44,9,169,11121,-758,3898,3138,13763,-8462,
1873,7,27,2023,12,44,9,179,12586,-2247,1854,2768,13320,-8926,
1874,7,27,2023,12,44,9,189,14576,-2972,-719,2486,12657,-8776,
1875,7,27,2023,12,44,9,199,15391,-3632,-3507,2025,11768,-7782,
1876,7,27,2023,12,44,9,209,15175,-3552,-6222,1429,10286,-6058,
1877,7,27,2023,12,44,9,219,15459,-2946,-8946,847,8189,-3354,
1878,7,27,2023,12,44,9,229,15717,-3458,-11160,739,5966,-125,
1879,7,27,2023,12,44,9,239,14740,-3114,-11927,1352,3730,1906,
1880,7,27,2023,12,44,9,249,12245,-961,-11744,1533,1357,2313,
1881,7,27,2023,12,44,9,259,10285,398,-11752,-84,-1736,2172,
1882,7,27,2023,12,44,9,269,12387,-1844,-15398,-2468,-6000,2382,
1883,7,27,2023,12,44,9,279,6448,-3550,-3030,-4337,-11235,2866,
1884,7,27,2023,12,44,9,289,17862,-3789,18251,-3718,-10540,2202,
1885,7,27,2023,12,44,9,299,15695,-7539,11848,-2527,-4143,2635,
1886,7,27,2023,12,44,9,309,3165,1636,6973,-1662,-2288,3767,
1887,7,27,2023,12,44,9,319,4001,4990,7982,-2164,-2406,2595,
1888,7,27,2023,12,44,9,329,3443,-2184,6042,-1156,-1677,1437,
1889,7,27,2023,12,44,9,339,4400,295,2468,-82,-1178,1457,
1890,7,27,2023,12,44,9,349,2605,1535,2073,35,-895,1216,
1891,7,27,2023,12,44,9,359,805,-234,2810,31,-884,1205,
1892,7,27,2023,12,44,9,369,2790,-1714,4029,45,-892,766,
1893,7,27,2023,12,44,9,379,4049,1134,4679,6,-165,319,
1894,7,27,2023,12,44,9,389,2681,2199,4622,-129,-104,518,
1895,7,27,2023,12,44,9,399,2976,477,4070,-211,-794,768,
1896,7,27,2023,12,44,9,409,2884,-803,4337,-126,-1226,607,
1897,7,27,2023,12,44,9,419,2037,405,4548,-11,-1371,398,
1898,7,27,2023,12,44,9,429,819,1207,5412,52,-1827,481,
1899,7,27,2023,12,44,9,439,3400,708,4521,71,-2482,714,
1900,7,27,2023,12,44,9,449,1434,680,4715,180,-3233,885,
1901,7,27,2023,12,44,9,459,1702,-705,4911,-54,-4502,954,
1902,7,27,2023,12,44,9,469,2670,-773,4604,160,-6167,702,
1903,7,27,2023,12,44,9,479,1904,-273,4567,201,-8103,516,
1904,7,27,2023,12,44,9,489,1742,392,4302,-93,-9872,472,
1905,7,27,2023,12,44,9,499,1702,936,4539,-314,-11275,557,
1906,7,27,2023,12,44,9,509,1646,299,4530,-657,-12256,820,
1907,7,27,2023,12,44,9,519,2611,316,3766,-977,-13052,1061,
1908,7,27,2023,12,44,9,529,2048,-738,3287,-1057,-13655,900,
1909,7,27,2023,12,44,9,539,3676,-301,2568,-620,-14196,607,
1910,7,27,2023,12,44,9,549,5189,-1631,1711,-279,-14657,-229,
1911,7,27,2023,12,44,9,559,5941,-1354,1403,489,-14728,-1127,
1912,7,27,2023,12,44,9,569,6384,-536,2883,848,-14262,-1783,
1913,7,27,2023,12,44,9,579,4313,113,3335,773,-12949,-2140,
1914,7,27,2023,12,44,9,589,3213,35,1680,260,-11895,-1988,
1915,7,27,2023,12,44,9,599,5264,271,2702,19,-12122,-1880,
1916,7,27,2023,12,44,9,609,3101,737,2377,-255,-11751,-1683,
1917,7,27,2023,12,44,9,619,3837,970,1708,-953,-11895,-1225,
1918,7,27,2023,12,44,9,629,5079,460,2120,-1665,-12576,-762,
1919,7,27,2023,12,44,9,639,6664,-715,2817,-1848,-12425,-604,
1920,7,27,2023,12,44,9,649,7227,-171,4306,-1104,-11720,-983,
1921,7,27,2023,12,44,9,659,8471,-739,5316,-270,-10232,-1081,
1922,7,27,2023,12,44,9,669,11049,-1222,8735,1100,-8667,-293,
1923,7,27,2023,12,44,9,679,8245,-953,8327,1934,-4272,870,
1924,7,27,2023,12,44,9,689,7104,-437,7908,2607,-1403,2071,
1925,7,27,2023,12,44,9,699,6544,565,7694,3203,205,3318,
1926,7,27,2023,12,44,9,709,6401,2364,7850,3329,1221,4504,
1927,7,27,2023,12,44,9,719,5882,4259,7629,2440,2163,5532,
1928,7,27,2023,12,44,9,729,5302,5190,7012,648,3248,6339,
1929,7,27,2023,12,44,9,739,4822,4709,6620,-1149,4456,6756,
1930,7,27,2023,12,44,9,749,3920,3873,6021,-1866,5868,6510,
1931,7,27,2023,12,44,9,759,2686,3212,5028,-1412,7374,5709,
1932,7,27,2023,12,44,9,769,1761,3012,4042,-300,8614,4779,
1933,7,27,2023,12,44,9,779,1350,3340,3361,938,9521,3930,
1934,7,27,2023,12,44,9,789,1642,3798,3127,1758,10242,3107,
1935,7,27,2023,12,44,9,799,2193,3914,3078,2070,11081,2295,
1936,7,27,2023,12,44,9,809,2525,3528,2910,2239,12062,1492,
1937,7,27,2023,12,44,9,819,3051,2778,2592,2664,12937,678,
1938,7,27,2023,12,44,9,829,3744,2354,2258,3489,13615,-152,
1939,7,27,2023,12,44,9,839,4126,2497,2193,4316,14067,-944,
1940,7,27,2023,12,44,9,849,4328,2300,2241,4624,14144,-1737,
1941,7,27,2023,12,44,9,859,4856,2001,2419,4583,13887,-2545,
1942,7,27,2023,12,44,9,869,5058,1775,3030,4389,13507,-3374,
1943,7,27,2023,12,44,9,879,5475,1474,3992,4067,13129,-4277,
1944,7,27,2023,12,44,9,889,6165,1382,5172,3695,13009,-5258,
1945,7,27,2023,12,44,9,899,7107,838,5949,3166,13091,-6358,
1946,7,27,2023,12,44,9,909,8427,465,5591,2743,13223,-7479,
1947,7,27,2023,12,44,9,919,9589,352,4480,2324,13201,-8251,
1948,7,27,2023,12,44,9,929,10593,-496,3085,1789,12940,-8543,
1949,7,27,2023,12,44,9,939,11749,-1806,1480,1496,12482,-8521,
1950,7,27,2023,12,44,9,949,13303,-2496,-217,1612,11922,-8183,
1951,7,27,2023,12,44,9,959,14527,-3119,-2307,1725,11188,-7318,
1952,7,27,2023,12,44,9,969,14489,-3620,-4910,1725,10112,-5782,
1953,7,27,2023,12,44,9,979,14283,-4069,-7309,1831,8523,-3445,
1954,7,27,2023,12,44,9,989,13935,-4234,-9141,2265,6739,-616,
1955,7,27,2023,12,44,9,999,12627,-3944,-10281,2830,4910,1782,
1956,7,27,2023,12,44,10,19,10711,-716,-9652,1276,348,2907,
1957,7,27,2023,12,44,10,29,10071,95,-7826,-573,-1856,2272,
1958,7,27,2023,12,44,10,39,8860,948,-9476,-2407,-3951,1789,
1959,7,27,2023,12,44,10,49,2925,-2469,-8390,-5260,-7752,3234,
1960,7,27,2023,12,44,10,59,10995,-2592,13117,-5422,-10137,3987,
1961,7,27,2023,12,44,10,69,20746,-4787,13761,-4583,-5838,3577,
1962,7,27,2023,12,44,10,79,7740,-3243,7153,-3553,-3494,3759,
1963,7,27,2023,12,44,10,89,1795,-3030,11208,-2059,-2500,2240,
1964,7,27,2023,12,44,10,99,2453,491,7632,-27,-1409,1233,
1965,7,27,2023,12,44,10,109,4437,453,4487,149,-2084,633,
1966,7,27,2023,12,44,10,119,4187,620,3863,154,-2525,772,
1967,7,27,2023,12,44,10,129,1345,-831,2599,205,-2401,712,
1968,7,27,2023,12,44,10,139,2727,-254,2311,250,-2407,531,
1969,7,27,2023,12,44,10,149,5591,1043,2793,-15,-1823,346,
1970,7,27,2023,12,44,10,159,2807,2311,3908,-184,-1122,463,
1971,7,27,2023,12,44,10,169,2778,1234,3887,-311,-1121,665,
1972,7,27,2023,12,44,10,179,1462,584,5383,-295,-1379,677,
1973,7,27,2023,12,44,10,189,3407,-272,5426,-263,-1859,735,
1974,7,27,2023,12,44,10,199,2129,254,5368,-94,-2462,557,
1975,7,27,2023,12,44,10,209,1434,-94,5530,-153,-3779,596,
1976,7,27,2023,12,44,10,219,2664,-1106,4826,-24,-5786,553,
1977,7,27,2023,12,44,10,229,1674,-189,5202,337,-8000,391,
1978,7,27,2023,12,44,10,239,1674,338,4815,212,-9725,302,
1979,7,27,2023,12,44,10,249,1843,452,4321,-85,-11223,366,
1980,7,27,2023,12,44,10,259,2136,735,4377,-412,-12418,647,
1981,7,27,2023,12,44,10,269,3487,246,3650,-710,-13242,814,
1982,7,27,2023,12,44,10,279,2470,-436,3213,-730,-13623,503,
1983,7,27,2023,12,44,10,289,3706,-166,2288,-223,-13937,45,
1984,7,27,2023,12,44,10,299,5498,-824,1247,241,-14109,-497,
1985,7,27,2023,12,44,10,309,5912,-303,1065,929,-14047,-906,
1986,7,27,2023,12,44,10,319,6264,673,2601,1859,-13206,-1341,
1987,7,27,2023,12,44,10,329,4822,1410,2793,2288,-11556,-1012,
1988,7,27,2023,12,44,10,339,4185,555,1083,2352,-9981,-563,
1989,7,27,2023,12,44,10,349,5619,974,2080,2706,-9434,-257,
1990,7,27,2023,12,44,10,359,3614,1091,700,2335,-8498,307,
1991,7,27,2023,12,44,10,369,4722,675,1086,1314,-8663,1154,
1992,7,27,2023,12,44,10,379,4901,-912,1464,707,-8668,1683,
1993,7,27,2023,12,44,10,389,4587,-662,1842,1353,-9102,1717,
1994,7,27,2023,12,44,10,399,7785,1367,4132,1790,-9943,1671,
1995,7,27,2023,12,44,10,409,7540,1995,5531,717,-8772,1741,
1996,7,27,2023,12,44,10,419,6794,1032,6187,-823,-7249,1861,
1997,7,27,2023,12,44,10,429,6081,-638,6545,-1462,-6048,1902,
1998,7,27,2023,12,44,10,439,5706,-1284,6658,-627,-4915,1827,
1999,7,27,2023,12,44,10,449,6006,-151,6804,851,-3705,1954,
2000,7,27,2023,12,44,10,459,6163,1419,7032,1611,-2423,2594,
2001,7,27,2023,12,44,10,469,5578,2325,7336,1282,-1408,3388,
2002,7,27,2023,12,44,10,479,5019,2822,7424,372,-642,3913,
2003,7,27,2023,12,44,10,489,4916,3164,7181,-633,236,4089,
2004,7,27,2023,12,44,10,499,4707,3185,6754,-1529,1470,4081,
2005,7,27,2023,12,44,10,509,3850,2909,6157,-2060,2924,3978,
2006,7,27,2023,12,44,10,519,2859,2515,5254,-2063,4386,3761,
2007,7,27,2023,12,44,10,529,2192,2221,4464,-1610,5708,3532,
2008,7,27,2023,12,44,10,539,1943,2143,3947,-834,6957,3259,
2009,7,27,2023,12,44,10,549,1925,2344,3541,-17,8301,2856,
2010,7,27,2023,12,44,10,559,1958,2619,3103,538,9678,2407,
2011,7,27,2023,12,44,10,569,1930,2695,2653,821,10911,2032,
2012,7,27,2023,12,44,10,579,2141,2531,2252,1048,11835,1723,
2013,7,27,2023,12,44,10,589,2357,2467,1959,1403,12538,1375,
2014,7,27,2023,12,44,10,599,2476,2498,1899,1835,12978,848,
2015,7,27,2023,12,44,10,609,2931,2575,2105,2208,13133,90,
2016,7,27,2023,12,44,10,619,3778,2718,2491,2496,13208,-861,
2017,7,27,2023,12,44,10,629,4316,2760,2977,2625,13332,-1968,
2018,7,27,2023,12,44,10,639,4553,2472,3588,2613,13407,-3160,
2019,7,27,2023,12,44,10,649,5090,1953,4442,2653,13431,-4350,
2020,7,27,2023,12,44,10,659,5951,1532,5302,2819,13549,-5466,
2021,7,27,2023,12,44,10,669,7079,1119,6136,3015,13779,-6462,
2022,7,27,2023,12,44,10,679,9198,644,6190,3197,14045,-7409,
2023,7,27,2023,12,44,10,689,10841,298,5434,3292,14265,-8176,
2024,7,27,2023,12,44,10,699,11336,-686,4054,3206,14229,-8568,
2025,7,27,2023,12,44,10,709,11864,-2229,2007,3149,13696,-8703,
2026,7,27,2023,12,44,10,719,12608,-3141,-442,3463,12649,-8486,
2027,7,27,2023,12,44,10,729,13128,-3506,-2695,3887,11016,-7689,
2028,7,27,2023,12,44,10,739,13565,-3139,-4602,4110,8867,-6322,
2029,7,27,2023,12,44,10,749,14810,-2871,-6567,3975,6866,-4171,
2030,7,27,2023,12,44,10,759,15662,-2987,-8486,3431,5540,-1834,
2031,7,27,2023,12,44,10,769,12498,-3117,-10281,2544,4402,20,
2032,7,27,2023,12,44,10,779,10015,-2275,-10350,1559,2284,1005,
2033,7,27,2023,12,44,10,789,9820,-814,-8956,373,-118,1316,
2034,7,27,2023,12,44,10,799,9333,-619,-7072,-585,-1866,1345,
2035,7,27,2023,12,44,10,809,7617,122,-7716,-914,-3488,1578,
2036,7,27,2023,12,44,10,819,6816,-1313,-9672,-2938,-7300,4195,
2037,7,27,2023,12,44,10,829,15183,948,8489,-6622,-10227,8015,
2038,7,27,2023,12,44,10,839,18554,-2323,12269,-6282,-3389,6688,
2039,7,27,2023,12,44,10,849,-3210,-4044,5006,-2176,-734,2742,
2040,7,27,2023,12,44,10,859,4765,-5196,12134,-2985,-2246,2849,
2041,7,27,2023,12,44,10,879,2358,1267,4463,-76,-513,336,
2042,7,27,2023,12,44,10,889,3712,1173,2804,-178,-849,566,
2043,7,27,2023,12,44,10,899,2517,491,1985,-325,-1066,1099,
2044,7,27,2023,12,44,10,909,2564,-1442,3477,-346,-1534,892,
2045,7,27,2023,12,44,10,919,4585,605,3893,-257,-996,509,
2046,7,27,2023,12,44,10,929,2591,1987,4870,-223,-603,457,
2047,7,27,2023,12,44,10,939,2728,1211,3945,-266,-642,681,
2048,7,27,2023,12,44,10,949,1339,-614,5564,-262,-1281,707,
2049,7,27,2023,12,44,10,959,2818,73,5314,-194,-1805,557,
2050,7,27,2023,12,44,10,969,2816,273,4456,-141,-2397,467,
2051,7,27,2023,12,44,10,979,3354,283,4310,-16,-3422,540,
2052,7,27,2023,12,44,10,989,2086,302,4524,-2,-4763,579,
2053,7,27,2023,12,44,10,999,980,206,5238,40,-6606,640,
2054,7,27,2023,12,44,11,9,1721,791,5508,162,-8553,592,
2055,7,27,2023,12,44,11,19,1784,1040,4744,-250,-9987,660,
2056,7,27,2023,12,44,11,29,1694,433,5079,-838,-11514,1045,
2057,7,27,2023,12,44,11,39,2584,424,4412,-1119,-12641,1493,
2058,7,27,2023,12,44,11,49,3761,-267,2899,-1619,-13650,1666,
2059,7,27,2023,12,44,11,59,3519,-1170,2833,-1644,-14603,1268,
2060,7,27,2023,12,44,11,69,4359,191,2752,-1023,-15022,687,
2061,7,27,2023,12,44,11,79,5002,-868,1982,-750,-14849,66,
2062,7,27,2023,12,44,11,89,6601,-25,2804,-356,-14430,-302,
2063,7,27,2023,12,44,11,99,6248,615,3050,34,-13325,-653,
2064,7,27,2023,12,44,11,109,4328,636,2216,326,-11394,-587,
2065,7,27,2023,12,44,11,119,5435,712,1967,206,-10449,-31,
2066,7,27,2023,12,44,11,129,4084,115,334,579,-9586,-17,
2067,7,27,2023,12,44,11,139,5789,722,1305,993,-9499,280,
2068,7,27,2023,12,44,11,149,5499,-910,2037,1114,-8678,636,
2069,7,27,2023,12,44,11,159,5576,-1830,2391,2076,-8363,1251,
2070,7,27,2023,12,44,11,169,8983,369,5329,3349,-8972,2035,
2071,7,27,2023,12,44,11,179,7397,1619,6137,2905,-6863,2628,
2072,7,27,2023,12,44,11,189,6333,1264,6346,1696,-4983,2858,
2073,7,27,2023,12,44,11,199,4946,720,6180,765,-3815,2848,
2074,7,27,2023,12,44,11,209,4176,765,5970,365,-3249,2820,
2075,7,27,2023,12,44,11,219,3723,1061,5841,160,-3056,2960,
2076,7,27,2023,12,44,11,229,3584,1289,5892,4,-2981,3289,
2077,7,27,2023,12,44,11,239,3896,1407,6369,-46,-2847,3662,
2078,7,27,2023,12,44,11,249,4484,1553,7186,30,-2503,3806,
