Packet #, Month, Day, Year, Hour, Minute, Second, MS, ACC X, ACC Y, ACC Z, GYR X, GYR Y, GYR Z
1,7,27,2023,12,43,57,5,9821,-1050,2588,314,11953,5924,
2,7,27,2023,12,43,57,15,10229,-579,2141,328,11264,6280,
3,7,27,2023,12,43,57,25,10791,171,1349,100,10591,6440,
4,7,27,2023,12,43,57,35,11076,1000,222,-340,9902,6340,
5,7,27,2023,12,43,57,45,11276,1591,-1013,-848,9010,6070,
6,7,27,2023,12,43,57,55,11861,1687,-2020,-1152,7913,5630,
7,7,27,2023,12,43,57,65,12149,1437,-2963,-1021,6868,4813,
8,7,27,2023,12,43,57,75,11652,1292,-3918,-497,5831,3418,
9,7,27,2023,12,43,57,85,10879,1505,-4629,44,4531,1534,
10,7,27,2023,12,43,57,95,11154,1825,-4756,81,2915,-346,
11,7,27,2023,12,43,57,105,12056,1414,-4433,-479,1390,-1582,
12,7,27,2023,12,43,57,115,12181,597,-4123,-1021,171,-2013,
13,7,27,2023,12,43,57,125,11299,120,-3812,-1071,-991,-1887,
14,7,27,2023,12,43,57,135,8842,-135,-3660,-751,-2407,-1565,
15,7,27,2023,12,43,57,145,2671,1116,-2521,-85,-4895,-1601,
16,7,27,2023,12,43,57,155,1801,-463,6333,627,-7428,-1692,
17,7,27,2023,12,43,57,165,1881,-640,9144,158,-7297,-1995,
18,7,27,2023,12,43,57,175,1504,816,2646,-576,-7160,-2893,
19,7,27,2023,12,43,57,185,3645,-596,4084,26,-9021,-4034,
20,7,27,2023,12,43,57,195,8838,-3305,7182,-48,-9405,-3751,
21,7,27,2023,12,43,57,205,11790,-7158,6484,339,-7235,-2613,
22,7,27,2023,12,43,57,215,7640,-1868,3207,2743,-5131,-2332,
23,7,27,2023,12,43,57,225,5209,1388,6060,3022,-4025,-2127,
24,7,27,2023,12,43,57,235,3759,1617,5941,1662,-2119,-1923,
25,7,27,2023,12,43,57,245,1613,-1287,4172,479,-1150,-1372,
26,7,27,2023,12,43,57,255,2954,-1277,3569,89,-1664,-1132,
27,7,27,2023,12,43,57,265,3922,-446,3466,-107,-1706,-1146,
28,7,27,2023,12,43,57,275,3828,-146,4617,-202,-1329,-943,
29,7,27,2023,12,43,57,285,2935,-450,3626,-264,-809,-638,
30,7,27,2023,12,43,57,295,98,-1456,4058,-306,-904,-590,
31,7,27,2023,12,43,57,305,2418,-997,3954,-160,-1260,-839,
32,7,27,2023,12,43,57,315,2309,-678,3565,-139,-1272,-853,
33,7,27,2023,12,43,57,325,2476,-735,3436,-162,-1190,-896,
34,7,27,2023,12,43,57,335,2570,-994,3542,-179,-1267,-882,
35,7,27,2023,12,43,57,345,3067,-891,3196,-84,-1428,-925,
36,7,27,2023,12,43,57,355,1741,-999,3572,-55,-1604,-1008,
37,7,27,2023,12,43,57,365,2367,-526,3879,-20,-1733,-1061,
38,7,27,2023,12,43,57,375,3379,-249,3311,-69,-1871,-1004,
39,7,27,2023,12,43,57,385,1425,-504,3601,-149,-1924,-877,
40,7,27,2023,12,43,57,395,3757,-547,3243,-135,-2501,-806,
41,7,27,2023,12,43,57,405,1842,-776,3672,-144,-2821,-810,
42,7,27,2023,12,43,57,415,3161,-685,3673,-12,-3348,-860,
43,7,27,2023,12,43,57,425,3859,-292,3451,107,-4118,-927,
44,7,27,2023,12,43,57,435,2358,-826,4292,70,-5083,-979,
45,7,27,2023,12,43,57,445,2423,-602,4870,297,-6111,-1212,
46,7,27,2023,12,43,57,455,2437,-827,3880,361,-7158,-1268,
47,7,27,2023,12,43,57,465,1614,-436,4846,504,-8511,-1421,
48,7,27,2023,12,43,57,475,3372,15,4138,613,-9795,-1612,
49,7,27,2023,12,43,57,485,1725,-224,4001,323,-10900,-1463,
50,7,27,2023,12,43,57,495,2980,-38,3444,131,-11842,-1479,
51,7,27,2023,12,43,57,505,4379,98,2591,-212,-12717,-1230,
52,7,27,2023,12,43,57,515,5085,873,1839,-774,-13323,-730,
53,7,27,2023,12,43,57,525,6521,476,3172,-1382,-13663,-418,
54,7,27,2023,12,43,57,535,5268,-205,3285,-1875,-13015,-77,
55,7,27,2023,12,43,57,545,3808,-144,2366,-2104,-12139,189,
56,7,27,2023,12,43,57,555,7400,-467,3295,-2608,-11377,483,
57,7,27,2023,12,43,57,565,4876,-1757,2111,-3008,-10355,473,
58,7,27,2023,12,43,57,575,5453,-924,1196,-3197,-8799,630,
59,7,27,2023,12,43,57,585,6435,-2063,2256,-3025,-7968,-114,
60,7,27,2023,12,43,57,595,4726,-250,1207,-2216,-6761,-857,
61,7,27,2023,12,43,57,605,5983,1287,3047,-2680,-6488,-1494,
62,7,27,2023,12,43,57,615,11618,-677,6393,-3464,-6026,-2853,
63,7,27,2023,12,43,57,625,6907,-1582,6138,-3149,-2989,-3671,
64,7,27,2023,12,43,57,635,4085,-781,5598,-2408,-1326,-4510,
65,7,27,2023,12,43,57,645,3060,-248,5366,-2088,-1400,-5460,
66,7,27,2023,12,43,57,655,3012,-1091,5407,-2225,-1927,-6203,
67,7,27,2023,12,43,57,665,3950,-2543,5991,-2019,-2427,-6770,
68,7,27,2023,12,43,57,675,5205,-3975,6956,-1177,-2569,-7000,
69,7,27,2023,12,43,57,685,5863,-5528,7719,327,-2088,-6703,
70,7,27,2023,12,43,57,695,5800,-6310,8000,2453,-1046,-5947,
71,7,27,2023,12,43,57,705,5077,-5480,7788,4563,308,-4859,
72,7,27,2023,12,43,57,715,3450,-4026,7026,5586,1751,-3577,
73,7,27,2023,12,43,57,725,1816,-2699,6141,5237,2897,-2276,
74,7,27,2023,12,43,57,735,979,-1784,5353,3839,3705,-998,
75,7,27,2023,12,43,57,745,549,-2019,4570,2087,4500,138,
76,7,27,2023,12,43,57,755,665,-2620,4028,879,5405,846,
77,7,27,2023,12,43,57,765,941,-2881,3705,502,6505,1172,
78,7,27,2023,12,43,57,775,1183,-2450,3531,566,7689,1265,
79,7,27,2023,12,43,57,785,1563,-1681,3434,376,8851,1287,
80,7,27,2023,12,43,57,795,2016,-1450,3244,-336,9973,1342,
81,7,27,2023,12,43,57,805,2354,-1872,3000,-1152,10953,1431,
82,7,27,2023,12,43,57,815,2661,-2244,2922,-1634,11703,1621,
83,7,27,2023,12,43,57,825,3083,-2362,3011,-1827,12234,1987,
84,7,27,2023,12,43,57,835,3396,-2467,3144,-1937,12609,2562,
85,7,27,2023,12,43,57,845,3578,-2580,3405,-2010,12840,3343,
86,7,27,2023,12,43,57,865,4619,-2055,4794,-2122,13056,5272,
87,7,27,2023,12,43,57,875,5629,-1127,5919,-2487,13346,6190,
88,7,27,2023,12,43,57,885,7015,-610,6478,-3287,13971,6905,
89,7,27,2023,12,43,57,895,8124,-1263,6350,-4044,14840,7247,
90,7,27,2023,12,43,57,905,8683,-2297,5870,-3916,15563,7131,
91,7,27,2023,12,43,57,915,9377,-2069,5655,-2970,15677,6798,
92,7,27,2023,12,43,57,925,10996,-939,5321,-2361,15288,6572,
93,7,27,2023,12,43,57,935,12684,-584,4092,-2688,14797,6518,
94,7,27,2023,12,43,57,945,14110,270,2411,-3276,14023,6551,
95,7,27,2023,12,43,57,955,15449,1941,45,-3849,12845,6602,
96,7,27,2023,12,43,57,965,15284,4122,-3436,-4365,11127,6494,
97,7,27,2023,12,43,57,975,14717,4269,-7694,-4168,8673,5904,
98,7,27,2023,12,43,57,985,14400,2538,-11182,-2080,5843,4077,
99,7,27,2023,12,43,57,995,14965,3416,-11560,1180,2975,1081,
100,7,27,2023,12,43,58,5,15973,5663,-9586,2112,709,-1308,
101,7,27,2023,12,43,58,15,13790,4452,-7677,177,-765,-1764,
102,7,27,2023,12,43,58,25,10777,1445,-5576,-1105,-2277,-1093,
103,7,27,2023,12,43,58,35,4517,-67,-5223,-190,-4124,-945,
104,7,27,2023,12,43,58,45,-1378,3879,-3748,1758,-7748,-2290,
105,7,27,2023,12,43,58,55,1454,999,7405,1390,-10710,-3491,
106,7,27,2023,12,43,58,65,13185,340,10250,1271,-10699,-5000,
107,7,27,2023,12,43,58,75,22971,-11171,9359,3693,-8202,-5763,
108,7,27,2023,12,43,58,85,10461,-3997,11164,6936,-6067,-4067,
109,7,27,2023,12,43,58,95,2472,7918,11666,3986,-3121,-2611,
110,7,27,2023,12,43,58,105,4591,1386,6372,463,-1391,-2014,
111,7,27,2023,12,43,58,115,5094,-449,2907,-441,-1995,-882,
112,7,27,2023,12,43,58,125,2600,-306,2868,-574,-2429,-629,
113,7,27,2023,12,43,58,135,2708,-1281,2981,-465,-2025,-620,
114,7,27,2023,12,43,58,145,3836,-1981,3253,-216,-1444,-713,
115,7,27,2023,12,43,58,155,2332,-791,4828,-26,-1042,-698,
116,7,27,2023,12,43,58,165,2152,-562,4207,-53,-1029,-588,
117,7,27,2023,12,43,58,175,1760,-1163,4628,-74,-1417,-563,
118,7,27,2023,12,43,58,185,3165,-1190,4423,-49,-1495,-584,
119,7,27,2023,12,43,58,195,2618,-1285,4077,-108,-1618,-618,
120,7,27,2023,12,43,58,205,2342,-638,4042,-61,-2117,-756,
121,7,27,2023,12,43,58,215,2908,-271,4276,-78,-2991,-821,
122,7,27,2023,12,43,58,225,2238,-380,4562,-283,-3892,-669,
123,7,27,2023,12,43,58,235,2052,-651,5078,-445,-4891,-671,
124,7,27,2023,12,43,58,245,1865,-999,5334,-394,-6162,-846,
125,7,27,2023,12,43,58,255,2194,-1070,3288,-292,-7319,-1005,
126,7,27,2023,12,43,58,265,709,-1225,5305,-144,-8976,-1454,
127,7,27,2023,12,43,58,275,3025,-1360,4005,35,-10148,-1819,
128,7,27,2023,12,43,58,285,1383,-151,3310,394,-11083,-1906,
129,7,27,2023,12,43,58,295,3926,147,2564,386,-12079,-1998,
130,7,27,2023,12,43,58,305,4387,286,2417,274,-12686,-1839,
131,7,27,2023,12,43,58,315,3619,779,1839,-127,-12686,-1270,
132,7,27,2023,12,43,58,325,5897,244,2787,-591,-12614,-934,
133,7,27,2023,12,43,58,335,6042,-182,2965,-779,-12141,-739,
134,7,27,2023,12,43,58,345,3778,-826,1726,-1238,-10738,-196,
135,7,27,2023,12,43,58,355,6002,-1247,3038,-740,-10224,-524,
136,7,27,2023,12,43,58,365,3760,-271,2232,-750,-9125,-291,
137,7,27,2023,12,43,58,375,4678,-1348,1617,-1071,-8528,-223,
138,7,27,2023,12,43,58,385,4452,-1427,1258,-621,-8445,-548,
139,7,27,2023,12,43,58,395,5144,18,1784,6,-8213,-999,
140,7,27,2023,12,43,58,405,5121,2000,2731,-220,-7474,-1176,
141,7,27,2023,12,43,58,415,7781,2852,5204,-1758,-6512,-2339,
142,7,27,2023,12,43,58,425,7784,458,6667,-2477,-4466,-4364,
143,7,27,2023,12,43,58,435,4359,339,5675,-2325,-1672,-5441,
144,7,27,2023,12,43,58,445,2780,480,5110,-2291,-675,-6291,
145,7,27,2023,12,43,58,455,2471,-699,4889,-2455,-713,-7004,
146,7,27,2023,12,43,58,465,3203,-2543,5385,-2094,-1045,-7555,
147,7,27,2023,12,43,58,475,4504,-4401,6566,-834,-1241,-7792,
148,7,27,2023,12,43,58,485,5136,-5901,7494,1165,-948,-7417,
149,7,27,2023,12,43,58,495,5197,-6529,7823,3560,-113,-6396,
150,7,27,2023,12,43,58,505,4826,-5634,7635,5559,1074,-4898,
151,7,27,2023,12,43,58,515,3588,-4368,7156,6216,2377,-3147,
152,7,27,2023,12,43,58,525,2121,-3500,6479,5509,3417,-1449,
153,7,27,2023,12,43,58,535,1155,-2915,5778,4016,4096,61,
154,7,27,2023,12,43,58,545,1001,-2975,5176,2407,4708,1309,
155,7,27,2023,12,43,58,555,1284,-3352,4849,1356,5524,2224,
156,7,27,2023,12,43,58,565,1579,-3202,4685,1052,6596,2768,
157,7,27,2023,12,43,58,575,1848,-2380,4504,949,7787,2991,
158,7,27,2023,12,43,58,585,2253,-1697,4255,473,8959,3006,
159,7,27,2023,12,43,58,595,2417,-1704,3963,-268,10023,2895,
160,7,27,2023,12,43,58,605,2542,-1996,3741,-845,10823,2738,
161,7,27,2023,12,43,58,615,2847,-2333,3792,-1095,11355,2656,
162,7,27,2023,12,43,58,625,3311,-2378,4097,-1159,11739,2798,
163,7,27,2023,12,43,58,635,3708,-2135,4593,-1297,12099,3294,
164,7,27,2023,12,43,58,645,4106,-1723,5087,-1677,12459,4115,
165,7,27,2023,12,43,58,655,4496,-1220,5565,-2214,12818,5047,
166,7,27,2023,12,43,58,665,4788,-252,6153,-2828,13133,5862,
167,7,27,2023,12,43,58,675,5753,614,6490,-3651,13400,6393,
168,7,27,2023,12,43,58,685,7087,484,6413,-4485,13787,6557,
169,7,27,2023,12,43,58,695,8486,-362,5983,-4653,14308,6172,
170,7,27,2023,12,43,58,705,9309,-423,5005,-3951,14803,5318,
171,7,27,2023,12,43,58,725,10648,1934,2163,-3136,14449,3761,
172,7,27,2023,12,43,58,735,12123,1642,519,-3571,13537,3543,
173,7,27,2023,12,43,58,745,13698,1454,-1551,-3387,12183,3533,
174,7,27,2023,12,43,58,755,14491,2301,-4105,-2579,10414,3427,
175,7,27,2023,12,43,58,765,14424,3241,-7013,-1791,8350,2961,
176,7,27,2023,12,43,58,775,13159,2622,-9382,-950,6047,2110,
177,7,27,2023,12,43,58,785,12408,1993,-9845,354,3411,821,
178,7,27,2023,12,43,58,795,13602,3068,-8242,981,1026,-420,
179,7,27,2023,12,43,58,805,12316,2524,-6806,-108,-387,-888,
180,7,27,2023,12,43,58,815,8100,-74,-7269,-841,-1843,-972,
181,7,27,2023,12,43,58,825,5901,3076,-12486,669,-5754,-1843,
182,7,27,2023,12,43,58,835,6115,1291,3522,1658,-11777,-2529,
183,7,27,2023,12,43,58,845,10425,1522,14353,1618,-11293,-3359,
184,7,27,2023,12,43,58,855,13372,-2901,8303,1730,-7574,-4792,
185,7,27,2023,12,43,58,865,14700,-11021,10961,5360,-6742,-4671,
186,7,27,2023,12,43,58,875,6597,3501,10713,4868,-4403,-2297,
187,7,27,2023,12,43,58,885,4410,6032,7197,1218,-1731,-1803,
188,7,27,2023,12,43,58,895,4114,-1473,2613,-352,-1553,-1014,
189,7,27,2023,12,43,58,905,2017,-911,2029,-263,-1941,-670,
190,7,27,2023,12,43,58,915,2725,144,3051,-371,-1675,-645,
191,7,27,2023,12,43,58,925,2667,-741,5127,-437,-1093,-409,
192,7,27,2023,12,43,58,935,3876,-1913,3774,-258,-713,-394,
193,7,27,2023,12,43,58,945,1529,-1393,4649,-168,-789,-501,
194,7,27,2023,12,43,58,955,1888,-487,4728,-165,-1025,-530,
195,7,27,2023,12,43,58,965,2737,-751,3971,-241,-1268,-442,
196,7,27,2023,12,43,58,975,3178,-663,3630,-265,-1527,-438,
197,7,27,2023,12,43,58,985,2545,-1358,4299,-307,-1757,-492,
198,7,27,2023,12,43,58,995,2474,-1005,4416,-272,-2021,-649,
199,7,27,2023,12,43,59,5,2719,-806,3933,-250,-2468,-741,
200,7,27,2023,12,43,59,15,1278,-332,5137,-291,-3281,-773,
201,7,27,2023,12,43,59,25,2734,-284,4892,-496,-4240,-735,
202,7,27,2023,12,43,59,35,1855,-896,4764,-689,-5321,-673,
203,7,27,2023,12,43,59,45,1935,-854,4587,-556,-6542,-862,
204,7,27,2023,12,43,59,55,2186,-1110,4035,-484,-7952,-1172,
205,7,27,2023,12,43,59,65,1973,-911,3401,-317,-9399,-1526,
206,7,27,2023,12,43,59,75,2506,-880,3728,-89,-10721,-1828,
207,7,27,2023,12,43,59,85,2722,-445,3313,216,-11552,-1977,
208,7,27,2023,12,43,59,95,2318,-181,2704,176,-12214,-1953,
209,7,27,2023,12,43,59,105,2855,-146,1932,-185,-12543,-1640,
210,7,27,2023,12,43,59,115,6664,166,4253,-476,-13005,-1398,
211,7,27,2023,12,43,59,125,3025,-537,1795,-1281,-12572,-862,
212,7,27,2023,12,43,59,135,6233,318,2695,-1714,-12442,-679,
213,7,27,2023,12,43,59,145,5724,-699,1904,-2357,-11660,-555,
214,7,27,2023,12,43,59,155,5218,-333,2316,-2582,-10999,-571,
215,7,27,2023,12,43,59,165,4392,-644,1958,-3133,-10095,-496,
216,7,27,2023,12,43,59,175,4897,-664,2031,-3471,-9401,-456,
217,7,27,2023,12,43,59,185,4080,-1826,2317,-3443,-8999,-691,
218,7,27,2023,12,43,59,195,3878,-657,2109,-2606,-8379,-1099,
219,7,27,2023,12,43,59,205,4783,-423,1932,-2123,-7994,-1487,
220,7,27,2023,12,43,59,215,4009,-586,3194,-2161,-7405,-1396,
221,7,27,2023,12,43,59,225,9826,-1353,6609,-2405,-6379,-1687,
222,7,27,2023,12,43,59,235,6954,-1598,7274,-1762,-3401,-2294,
223,7,27,2023,12,43,59,245,3586,-979,6306,-1237,-697,-3007,
224,7,27,2023,12,43,59,255,2788,-759,6147,-1127,175,-4143,
225,7,27,2023,12,43,59,265,2926,-1967,6404,-1296,260,-5315,
226,7,27,2023,12,43,59,275,3733,-4004,6849,-817,148,-6225,
227,7,27,2023,12,43,59,285,4306,-5840,6999,677,439,-6691,
228,7,27,2023,12,43,59,295,4567,-6777,6963,2851,1419,-6721,
229,7,27,2023,12,43,59,305,4256,-6271,6760,4897,2847,-6282,
230,7,27,2023,12,43,59,315,3089,-4747,6365,5774,4369,-5329,
231,7,27,2023,12,43,59,325,1725,-3141,5858,4989,5557,-3979,
232,7,27,2023,12,43,59,335,1177,-2340,5217,2840,6352,-2379,
233,7,27,2023,12,43,59,345,1139,-3159,4496,381,7011,-737,
234,7,27,2023,12,43,59,355,1303,-4654,3883,-928,7669,572,
235,7,27,2023,12,43,59,365,1729,-4789,3636,-723,8318,1398,
236,7,27,2023,12,43,59,375,2189,-3361,3679,-219,9002,1996,
237,7,27,2023,12,43,59,385,2541,-2076,3627,-608,9728,2618,
238,7,27,2023,12,43,59,395,2834,-1925,3557,-1696,10341,3235,
239,7,27,2023,12,43,59,405,3371,-2399,3622,-2544,10807,3723,
240,7,27,2023,12,43,59,415,4108,-2678,3930,-2715,11244,4043,
241,7,27,2023,12,43,59,425,4539,-2325,4340,-2518,11711,4348,
242,7,27,2023,12,43,59,435,4607,-1640,4809,-2462,12128,4867,
243,7,27,2023,12,43,59,445,4607,-873,5318,-2736,12402,5613,
244,7,27,2023,12,43,59,455,4920,-38,6004,-3244,12508,6440,
245,7,27,2023,12,43,59,465,5923,630,6509,-3858,12566,7182,
246,7,27,2023,12,43,59,475,7390,536,6587,-4380,12815,7694,
247,7,27,2023,12,43,59,485,8899,-253,6234,-4238,13271,7812,
248,7,27,2023,12,43,59,495,10098,118,5333,-3214,13725,7519,
249,7,27,2023,12,43,59,505,10785,1856,4020,-2136,13943,7085,
250,7,27,2023,12,43,59,515,11624,2452,2396,-1731,13772,6584,
251,7,27,2023,12,43,59,525,13130,1537,243,-1313,13148,5725,
252,7,27,2023,12,43,59,535,14750,1324,-2433,-258,11974,4448,
253,7,27,2023,12,43,59,545,15113,2336,-5687,762,10338,2991,
254,7,27,2023,12,43,59,555,14369,3114,-8893,1194,8178,1679,
255,7,27,2023,12,43,59,565,13257,2705,-11012,1343,5466,749,
256,7,27,2023,12,43,59,585,12849,2938,-9277,1920,-378,-73,
257,7,27,2023,12,43,59,595,11404,2626,-7001,898,-2243,345,
258,7,27,2023,12,43,59,605,7763,851,-8613,375,-4074,391,
259,7,27,2023,12,43,59,615,2711,4279,-5886,1955,-8247,-600,
260,7,27,2023,12,43,59,625,5101,2394,11232,1876,-10988,-1390,
261,7,27,2023,12,43,59,635,9521,4777,9715,1154,-8890,-3625,
262,7,27,2023,12,43,59,645,18455,-8972,9249,1850,-6787,-4835,
263,7,27,2023,12,43,59,655,13780,-5881,9709,4319,-4723,-2799,
264,7,27,2023,12,43,59,665,-1037,6788,8522,2133,-1881,-930,
265,7,27,2023,12,43,59,675,3083,1289,5497,-19,-1059,-1399,
266,7,27,2023,12,43,59,685,3652,-1142,3097,-555,-1666,-624,
267,7,27,2023,12,43,59,695,2158,-1015,2570,-586,-1751,-434,
268,7,27,2023,12,43,59,705,3055,-1107,3326,-504,-1262,-481,
269,7,27,2023,12,43,59,715,3722,-918,3837,-391,-855,-434,
270,7,27,2023,12,43,59,725,3525,-1165,4470,-275,-765,-489,
271,7,27,2023,12,43,59,735,1782,-910,4462,-234,-759,-444,
272,7,27,2023,12,43,59,745,2333,-962,3829,-229,-1098,-452,
273,7,27,2023,12,43,59,755,1645,-1091,3995,-240,-1204,-414,
274,7,27,2023,12,43,59,765,2376,-1101,4954,-145,-1400,-569,
275,7,27,2023,12,43,59,775,3034,-1203,4151,-139,-1451,-524,
276,7,27,2023,12,43,59,785,1526,-867,4265,-273,-1785,-573,
277,7,27,2023,12,43,59,795,2780,-772,4527,-305,-2540,-719,
278,7,27,2023,12,43,59,805,2774,-174,4572,-357,-3619,-784,
279,7,27,2023,12,43,59,815,2479,-329,4325,-689,-4743,-751,
280,7,27,2023,12,43,59,825,1594,-1037,4904,-882,-6063,-875,
281,7,27,2023,12,43,59,835,1829,-1191,5114,-631,-7566,-1209,
282,7,27,2023,12,43,59,845,1747,-1183,4003,-499,-8843,-1431,
283,7,27,2023,12,43,59,855,1196,-731,4214,-199,-10237,-1761,
284,7,27,2023,12,43,59,865,2781,-588,3832,68,-11446,-1963,
285,7,27,2023,12,43,59,875,2345,-34,2990,245,-12226,-1950,
286,7,27,2023,12,43,59,885,3431,176,2118,19,-12941,-1901,
287,7,27,2023,12,43,59,895,4690,493,2896,-298,-13429,-1512,
288,7,27,2023,12,43,59,905,3894,326,2186,-968,-13294,-787,
289,7,27,2023,12,43,59,915,5247,251,1754,-1288,-13230,-418,
290,7,27,2023,12,43,59,925,5501,542,1794,-1782,-12352,175,
291,7,27,2023,12,43,59,935,6995,-2174,3420,-1712,-11669,42,
292,7,27,2023,12,43,59,945,2390,-73,1591,-891,-10273,85,
293,7,27,2023,12,43,59,955,4615,-1031,1704,-921,-9974,40,
294,7,27,2023,12,43,59,965,3512,-897,798,-637,-9904,-97,
295,7,27,2023,12,43,59,975,4705,-933,1313,-119,-10148,-403,
296,7,27,2023,12,43,59,985,5330,-121,2205,313,-9862,-415,
297,7,27,2023,12,43,59,995,4885,196,1864,136,-9045,-206,
298,7,27,2023,12,44,0,5,4703,-791,3270,-254,-8427,-74,
299,7,27,2023,12,44,0,15,7011,758,5218,-573,-7407,-713,
300,7,27,2023,12,44,0,25,8671,-20,7815,-1009,-5766,-2475,
301,7,27,2023,12,44,0,35,5699,-475,7291,-1130,-2489,-3693,
302,7,27,2023,12,44,0,45,5560,-1114,7497,-1323,-761,-4917,
303,7,27,2023,12,44,0,55,5344,-2865,7499,-1271,252,-5967,
304,7,27,2023,12,44,0,65,4816,-4568,7225,-351,911,-6840,
305,7,27,2023,12,44,0,75,4752,-5479,7071,1254,1526,-7536,
306,7,27,2023,12,44,0,85,4877,-5662,6977,2810,2405,-7779,
307,7,27,2023,12,44,0,95,4610,-5161,6966,3786,3600,-7376,
308,7,27,2023,12,44,0,105,3827,-4317,6722,3878,4919,-6335,
309,7,27,2023,12,44,0,115,2559,-3835,6005,3153,6120,-4787,
310,7,27,2023,12,44,0,125,1594,-3833,5130,2156,6953,-3138,
311,7,27,2023,12,44,0,135,1223,-4124,4479,1377,7536,-1609,
312,7,27,2023,12,44,0,145,1250,-4160,4151,1034,8056,-258,
313,7,27,2023,12,44,0,155,1567,-3494,4066,830,8653,890,
314,7,27,2023,12,44,0,165,2028,-2712,3997,289,9420,1872,
315,7,27,2023,12,44,0,175,2435,-2520,3884,-571,10258,2657,
316,7,27,2023,12,44,0,185,2938,-2627,3858,-1323,11021,3203,
317,7,27,2023,12,44,0,195,3484,-2676,3904,-1703,11688,3576,
318,7,27,2023,12,44,0,205,3950,-2587,4091,-1821,12264,3865,
319,7,27,2023,12,44,0,215,4208,-2300,4345,-1889,12747,4195,
320,7,27,2023,12,44,0,225,4445,-1932,4750,-2049,13078,4690,
321,7,27,2023,12,44,0,235,4935,-1512,5400,-2355,13277,5317,
322,7,27,2023,12,44,0,245,5795,-972,6203,-2781,13498,5947,
323,7,27,2023,12,44,0,255,6692,-426,6884,-3328,13903,6498,
324,7,27,2023,12,44,0,265,7731,-99,6910,-3859,14396,6884,
325,7,27,2023,12,44,0,275,8728,-160,6105,-4125,14795,6983,
326,7,27,2023,12,44,0,285,9232,-101,4922,-3909,14880,6703,
327,7,27,2023,12,44,0,295,9903,879,3904,-3397,14494,6207,
328,7,27,2023,12,44,0,305,11452,2171,2700,-3224,13901,5750,
329,7,27,2023,12,44,0,315,13240,2480,590,-3458,13377,5293,
330,7,27,2023,12,44,0,325,13818,2218,-2568,-3256,12540,4559,
331,7,27,2023,12,44,0,335,14072,2528,-6079,-2236,10754,3340,
332,7,27,2023,12,44,0,345,14582,2859,-9368,-757,8249,1967,
333,7,27,2023,12,44,0,355,14317,2690,-11507,761,5524,773,
334,7,27,2023,12,44,0,365,14479,3000,-11532,1815,2706,-284,
335,7,27,2023,12,44,0,375,14679,3493,-10125,1477,243,-895,
336,7,27,2023,12,44,0,385,12468,2134,-8461,188,-1644,-649,
337,7,27,2023,12,44,0,395,9470,-127,-6858,-252,-3524,-189,
338,7,27,2023,12,44,0,405,3780,1128,-7608,877,-6508,-1031,
339,7,27,2023,12,44,0,415,2537,-261,5583,1775,-10203,-2478,
340,7,27,2023,12,44,0,425,7515,2397,12292,1670,-9857,-3729,
341,7,27,2023,12,44,0,445,16033,-8641,9054,5281,-5270,-4837,
342,7,27,2023,12,44,0,455,3064,3053,9621,4002,-3427,-1879,
343,7,27,2023,12,44,0,465,3917,4586,7353,1191,-1258,-1869,
344,7,27,2023,12,44,0,475,2627,-935,3802,-199,-1389,-1224,
345,7,27,2023,12,44,0,485,2419,-1459,2117,-238,-2060,-987,
346,7,27,2023,12,44,0,495,1703,-541,3646,-246,-1862,-961,
347,7,27,2023,12,44,0,505,3175,-877,4375,-123,-1202,-784,
348,7,27,2023,12,44,0,515,3975,-1856,3998,55,-799,-779,
349,7,27,2023,12,44,0,525,2627,-987,3820,118,-938,-872,
350,7,27,2023,12,44,0,535,2315,-474,4227,91,-1241,-931,
351,7,27,2023,12,44,0,545,2403,-540,4278,35,-1354,-809,
352,7,27,2023,12,44,0,555,2527,-909,4958,-78,-1482,-737,
353,7,27,2023,12,44,0,565,3175,-1048,3682,-108,-1591,-692,
354,7,27,2023,12,44,0,575,454,-931,5343,-103,-2428,-789,
355,7,27,2023,12,44,0,585,2444,-812,5506,-164,-3421,-897,
356,7,27,2023,12,44,0,595,1918,-406,4987,-367,-4526,-839,
357,7,27,2023,12,44,0,605,2619,-532,4467,-435,-6022,-1000,
358,7,27,2023,12,44,0,615,1950,-581,4881,-274,-7787,-1223,
359,7,27,2023,12,44,0,625,1963,-872,4635,-127,-9317,-1442,
360,7,27,2023,12,44,0,635,1389,-695,3544,52,-10563,-1669,
361,7,27,2023,12,44,0,645,1639,-501,4337,348,-11908,-1892,
362,7,27,2023,12,44,0,655,3384,-166,3522,432,-12820,-2025,
363,7,27,2023,12,44,0,665,2001,-556,2897,132,-13300,-1889,
364,7,27,2023,12,44,0,675,4436,78,2991,-123,-13642,-1664,
365,7,27,2023,12,44,0,685,5329,851,1911,-770,-13580,-1032,
366,7,27,2023,12,44,0,695,6111,370,2018,-1313,-13530,-715,
367,7,27,2023,12,44,0,705,5606,342,2905,-1771,-12600,-215,
368,7,27,2023,12,44,0,715,4841,-465,1981,-1970,-11455,0,
369,7,27,2023,12,44,0,725,5717,-732,3071,-2058,-10844,165,
370,7,27,2023,12,44,0,735,1684,-836,1262,-2377,-9910,362,
371,7,27,2023,12,44,0,745,4642,-1137,1673,-2102,-9686,116,
372,7,27,2023,12,44,0,755,4740,-1223,2306,-1586,-9286,-294,
373,7,27,2023,12,44,0,765,3674,-265,787,-1016,-8506,-633,
374,7,27,2023,12,44,0,775,4253,-533,2251,-1048,-8471,-745,
375,7,27,2023,12,44,0,785,8644,-1654,5592,-1021,-7293,-829,
376,7,27,2023,12,44,0,795,9096,-1395,7800,-650,-4672,-1055,
377,7,27,2023,12,44,0,805,3852,-258,6505,-514,-1019,-1269,
378,7,27,2023,12,44,0,815,2407,691,5877,-990,476,-2127,
379,7,27,2023,12,44,0,825,1591,77,5359,-2033,751,-3271,
380,7,27,2023,12,44,0,835,2378,-1733,5586,-2512,470,-4664,
381,7,27,2023,12,44,0,845,3983,-3816,6458,-1722,159,-5980,
382,7,27,2023,12,44,0,855,5266,-5263,7087,124,358,-6822,
383,7,27,2023,12,44,0,865,5931,-5851,7378,2293,1425,-6928,
384,7,27,2023,12,44,0,875,5250,-5497,7049,4111,3114,-6398,
385,7,27,2023,12,44,0,885,3577,-4376,6350,4911,4722,-5478,
386,7,27,2023,12,44,0,895,2019,-3039,5563,4350,5826,-4310,
387,7,27,2023,12,44,0,905,1464,-2214,4859,2655,6551,-2941,
388,7,27,2023,12,44,0,915,1527,-2563,4201,521,7166,-1499,
389,7,27,2023,12,44,0,925,1748,-3654,3632,-999,7799,-258,
390,7,27,2023,12,44,0,935,2121,-4250,3348,-1266,8448,659,
391,7,27,2023,12,44,0,945,2455,-3510,3317,-829,9072,1329,
392,7,27,2023,12,44,0,955,2934,-2233,3382,-845,9688,1898,
393,7,27,2023,12,44,0,965,3355,-1913,3391,-1647,10319,2442,
394,7,27,2023,12,44,0,975,3622,-2155,3429,-2502,10847,2926,
395,7,27,2023,12,44,0,985,4410,-2225,3748,-3114,11549,3757,
396,7,27,2023,12,44,0,995,4514,-1932,4090,-3139,11765,4342,
397,7,27,2023,12,44,1,5,4568,-1422,4616,-3195,11869,5157,
398,7,27,2023,12,44,1,15,4773,-686,5367,-3368,11919,6072,
399,7,27,2023,12,44,1,25,5412,338,5992,-3755,11972,6925,
400,7,27,2023,12,44,1,35,6517,823,6129,-4394,12131,7582,
401,7,27,2023,12,44,1,45,7895,42,5571,-4747,12460,7874,
402,7,27,2023,12,44,1,55,9029,-560,4732,-4049,12804,7748,
403,7,27,2023,12,44,1,65,9842,690,3892,-2666,12957,7461,
404,7,27,2023,12,44,1,75,10655,2088,2419,-1832,12939,7164,
405,7,27,2023,12,44,1,85,11665,2026,375,-1624,12657,6576,
406,7,27,2023,12,44,1,95,12931,1875,-1817,-1156,11765,5556,
407,7,27,2023,12,44,1,105,13986,2793,-4344,-469,10234,4309,
408,7,27,2023,12,44,1,115,14033,3227,-6956,-202,8316,2981,
409,7,27,2023,12,44,1,125,13983,2829,-8794,-174,6094,1421,
410,7,27,2023,12,44,1,135,13901,2687,-9458,-60,3794,-76,
411,7,27,2023,12,44,1,145,13205,2384,-9089,92,1641,-810,
412,7,27,2023,12,44,1,155,11810,1912,-8110,305,-384,-682,
413,7,27,2023,12,44,1,165,9424,995,-6634,515,-2313,-206,
414,7,27,2023,12,44,1,175,5425,1127,-8087,1182,-4742,-469,
415,7,27,2023,12,44,1,185,2591,2168,-1387,2513,-8698,-2018,
416,7,27,2023,12,44,1,195,5004,1336,12175,2651,-9698,-3155,
417,7,27,2023,12,44,1,205,13110,990,9924,2076,-7061,-4387,
418,7,27,2023,12,44,1,215,16514,-8959,9865,4782,-4847,-5042,
419,7,27,2023,12,44,1,225,6341,-925,9510,4347,-3661,-2208,
420,7,27,2023,12,44,1,235,1482,6557,7661,1531,-1240,-1244,
421,7,27,2023,12,44,1,245,5838,640,4266,57,-911,-1562,
422,7,27,2023,12,44,1,255,2870,-87,2892,-587,-1705,-468,
423,7,27,2023,12,44,1,265,1978,-1504,3042,-804,-1811,-503,
424,7,27,2023,12,44,1,275,1810,-1328,4536,-738,-1630,-596,
425,7,27,2023,12,44,1,285,4027,-1385,4249,-500,-1282,-588,
426,7,27,2023,12,44,1,305,1407,-977,4021,-221,-1275,-801,
427,7,27,2023,12,44,1,315,3812,-912,3575,-189,-1462,-827,
428,7,27,2023,12,44,1,325,3964,-991,3384,-60,-1390,-761,
429,7,27,2023,12,44,1,335,2301,-778,3997,-40,-1338,-684,
430,7,27,2023,12,44,1,345,1939,-1205,4653,-102,-1640,-706,
431,7,27,2023,12,44,1,355,1402,-1572,5587,-39,-2404,-800,
432,7,27,2023,12,44,1,365,3176,-631,4159,-14,-3290,-937,
433,7,27,2023,12,44,1,375,1446,52,5415,-312,-4695,-937,
434,7,27,2023,12,44,1,385,2146,-751,5502,-568,-5989,-1009,
435,7,27,2023,12,44,1,395,1570,-482,4417,-392,-7397,-1110,
436,7,27,2023,12,44,1,405,2161,-511,3839,-378,-9174,-1335,
437,7,27,2023,12,44,1,415,2080,-509,4152,-56,-10777,-1658,
438,7,27,2023,12,44,1,425,2460,-632,4245,150,-12115,-1810,
439,7,27,2023,12,44,1,435,2679,-209,3303,212,-12907,-1888,
440,7,27,2023,12,44,1,445,2529,-193,2784,-199,-13258,-1689,
441,7,27,2023,12,44,1,455,5100,322,3381,-601,-13574,-1398,
442,7,27,2023,12,44,1,465,3550,300,2046,-1338,-13293,-648,
443,7,27,2023,12,44,1,475,6340,671,2307,-1760,-13185,-241,
444,7,27,2023,12,44,1,485,5879,-103,1925,-2522,-12441,241,
445,7,27,2023,12,44,1,495,5383,-298,2525,-2731,-11597,532,
446,7,27,2023,12,44,1,505,3598,301,2138,-2933,-10618,817,
447,7,27,2023,12,44,1,515,3495,-739,1640,-3343,-10154,998,
448,7,27,2023,12,44,1,525,5389,-570,1837,-2769,-9779,739,
449,7,27,2023,12,44,1,535,4542,-1376,2231,-2177,-9461,416,
450,7,27,2023,12,44,1,545,4265,120,1479,-1410,-8610,338,
451,7,27,2023,12,44,1,555,4034,-1070,2352,-1131,-8393,88,
452,7,27,2023,12,44,1,565,6113,72,4178,-606,-7577,-468,
453,7,27,2023,12,44,1,575,9115,-98,7285,-225,-6269,-1987,
454,7,27,2023,12,44,1,585,5339,427,6926,-117,-3041,-2899,
455,7,27,2023,12,44,1,595,3928,784,6836,-835,-1186,-3872,
456,7,27,2023,12,44,1,605,3423,-216,6721,-1976,-346,-4992,
457,7,27,2023,12,44,1,615,3954,-2463,7070,-2491,-11,-6231,
458,7,27,2023,12,44,1,625,4864,-4714,7635,-1727,206,-7328,
459,7,27,2023,12,44,1,635,5748,-5971,7988,45,790,-8013,
460,7,27,2023,12,44,1,645,6239,-6365,8057,1954,2129,-8040,
461,7,27,2023,12,44,1,655,5506,-6291,7691,3442,3973,-7442,
462,7,27,2023,12,44,1,665,4027,-5553,6843,4246,5642,-6525,
463,7,27,2023,12,44,1,675,2424,-4474,5833,4200,6785,-5426,
464,7,27,2023,12,44,1,685,1663,-3767,4947,3388,7448,-4125,
465,7,27,2023,12,44,1,695,1611,-3651,4390,2189,7907,-2670,
466,7,27,2023,12,44,1,705,1829,-4091,4035,1117,8412,-1143,
467,7,27,2023,12,44,1,715,2264,-4455,3776,623,9013,273,
468,7,27,2023,12,44,1,725,2641,-3969,3654,549,9670,1427,
469,7,27,2023,12,44,1,735,3074,-3115,3576,262,10370,2347,
470,7,27,2023,12,44,1,745,3364,-2783,3464,-420,11068,3095,
471,7,27,2023,12,44,1,755,3454,-2868,3319,-1058,11612,3660,
472,7,27,2023,12,44,1,765,3756,-3028,3330,-1358,11940,4007,
473,7,27,2023,12,44,1,775,4182,-2992,3579,-1390,12151,4258,
474,7,27,2023,12,44,1,785,4404,-2582,3968,-1399,12341,4635,
475,7,27,2023,12,44,1,795,4418,-1995,4428,-1638,12487,5229,
476,7,27,2023,12,44,1,805,4619,-1431,5072,-2111,12537,5906,
477,7,27,2023,12,44,1,815,5227,-773,5578,-2670,12501,6547,
478,7,27,2023,12,44,1,825,6289,-441,5798,-3255,12460,6977,
479,7,27,2023,12,44,1,835,8204,-829,5692,-3576,12527,7031,
480,7,27,2023,12,44,1,845,10235,-1549,5028,-3263,12912,6654,
481,7,27,2023,12,44,1,855,11390,-749,3724,-2417,13450,6018,
482,7,27,2023,12,44,1,865,11522,1825,2090,-2095,13650,5663,
483,7,27,2023,12,44,1,875,12299,3187,-37,-2976,13114,5729,
484,7,27,2023,12,44,1,885,13599,3097,-2562,-3889,11852,5605,
485,7,27,2023,12,44,1,895,14566,3100,-5188,-3683,9998,4994,
486,7,27,2023,12,44,1,905,14896,3235,-8062,-2407,7944,3861,
487,7,27,2023,12,44,1,915,13997,3127,-10425,-570,5794,2238,
488,7,27,2023,12,44,1,925,12690,2715,-11139,1205,3354,305,
489,7,27,2023,12,44,1,935,13098,2877,-9560,2123,834,-1244,
490,7,27,2023,12,44,1,945,12588,2897,-8128,1476,-1041,-1566,
491,7,27,2023,12,44,1,955,11017,3897,-15117,222,-3694,-1648,
492,7,27,2023,12,44,1,965,6163,1726,-7088,502,-10207,-2345,
493,7,27,2023,12,44,1,975,17117,-692,17545,1141,-12400,-2942,
494,7,27,2023,12,44,1,985,16682,-3095,12012,1902,-4984,-3960,
495,7,27,2023,12,44,1,995,6743,-7564,6733,4061,-2607,-4611,
496,7,27,2023,12,44,2,5,5091,-554,9873,4156,-3563,-1837,
497,7,27,2023,12,44,2,15,2783,4620,8127,1801,-1363,-1481,
498,7,27,2023,12,44,2,25,3393,-175,3937,151,-733,-1180,
499,7,27,2023,12,44,2,35,2253,-1005,1517,-210,-1253,-531,
500,7,27,2023,12,44,2,45,3051,-271,2509,-285,-1557,-612,
501,7,27,2023,12,44,2,55,3761,-1481,3808,-336,-1131,-533,
502,7,27,2023,12,44,2,65,2158,-1426,4669,-148,-573,-518,
503,7,27,2023,12,44,2,75,1567,-921,4441,-92,-674,-629,
504,7,27,2023,12,44,2,85,2001,-441,3646,-128,-1002,-644,
505,7,27,2023,12,44,2,95,2161,-562,4464,-193,-1297,-558,
506,7,27,2023,12,44,2,105,3032,-1255,4731,-159,-1184,-436,
507,7,27,2023,12,44,2,115,2967,-1225,4634,-48,-1135,-438,
508,7,27,2023,12,44,2,125,2776,-957,3953,-95,-1578,-522,
509,7,27,2023,12,44,2,135,1991,-926,4331,-353,-2347,-622,
510,7,27,2023,12,44,2,145,2299,-765,4572,-428,-2978,-692,
511,7,27,2023,12,44,2,165,1526,-44,4885,-747,-5204,-476,
512,7,27,2023,12,44,2,175,1433,-1036,5784,-748,-6924,-746,
513,7,27,2023,12,44,2,185,1861,-1355,4827,-532,-8482,-951,
514,7,27,2023,12,44,2,195,376,-1346,4395,-297,-9923,-1359,
515,7,27,2023,12,44,2,205,2920,-882,3366,107,-11474,-1928,
516,7,27,2023,12,44,2,215,3084,-457,3598,498,-12749,-2224,
517,7,27,2023,12,44,2,225,2499,-54,2571,540,-13255,-2329,
518,7,27,2023,12,44,2,235,3029,55,2404,154,-13520,-2065,
519,7,27,2023,12,44,2,245,5096,526,3406,-306,-13547,-1589,
520,7,27,2023,12,44,2,255,4355,500,1968,-828,-13416,-1022,
521,7,27,2023,12,44,2,265,5389,1189,2960,-1512,-13190,-254,
522,7,27,2023,12,44,2,275,5070,-981,2879,-1958,-12480,195,
523,7,27,2023,12,44,2,285,3893,182,1924,-1156,-11880,247,
524,7,27,2023,12,44,2,295,4524,-431,1862,-983,-11792,359,
525,7,27,2023,12,44,2,305,4310,-1113,2103,-883,-11672,496,
526,7,27,2023,12,44,2,315,4557,-823,2230,-221,-11640,189,
527,7,27,2023,12,44,2,325,5599,-522,3551,-82,-11693,256,
528,7,27,2023,12,44,2,335,4058,848,3157,-727,-11094,601,
529,7,27,2023,12,44,2,345,6747,-596,4134,-2338,-10379,1140,
530,7,27,2023,12,44,2,355,7330,502,6683,-3606,-8660,1130,
531,7,27,2023,12,44,2,365,12558,-890,10558,-4427,-6023,-935,
532,7,27,2023,12,44,2,375,6955,-1638,9306,-3609,-1159,-2695,
533,7,27,2023,12,44,2,385,4925,-1651,8572,-2886,1396,-4485,
534,7,27,2023,12,44,2,395,4146,-2719,8095,-2428,2227,-6195,
535,7,27,2023,12,44,2,405,4044,-4359,7615,-1581,2574,-7555,
536,7,27,2023,12,44,2,415,4539,-5109,7427,-279,3133,-8396,
537,7,27,2023,12,44,2,425,4764,-5293,7241,845,4178,-8520,
538,7,27,2023,12,44,2,435,4110,-5416,6762,1503,5498,-7922,
539,7,27,2023,12,44,2,445,2930,-5319,6022,1896,6661,-6786,
540,7,27,2023,12,44,2,455,2042,-5087,5230,2106,7463,-5306,
541,7,27,2023,12,44,2,465,1720,-4802,4621,2083,8040,-3613,
542,7,27,2023,12,44,2,475,1589,-4444,4178,1777,8548,-1767,
543,7,27,2023,12,44,2,485,1522,-4119,3859,1270,9024,106,
544,7,27,2023,12,44,2,495,1889,-3789,3678,686,9489,1777,
545,7,27,2023,12,44,2,505,2401,-3588,3567,167,10044,3078,
546,7,27,2023,12,44,2,515,2812,-3330,3538,-196,10618,3960,
547,7,27,2023,12,44,2,525,3268,-2898,3619,-431,11128,4495,
548,7,27,2023,12,44,2,535,3812,-2587,3811,-697,11593,4829,
549,7,27,2023,12,44,2,545,4210,-2485,3989,-1004,12045,5087,
550,7,27,2023,12,44,2,555,4405,-2435,4271,-1195,12445,5344,
551,7,27,2023,12,44,2,565,4706,-2101,4795,-1277,12731,5655,
552,7,27,2023,12,44,2,575,5225,-1460,5531,-1466,12964,6064,
553,7,27,2023,12,44,2,585,5914,-797,6214,-1892,13222,6569,
554,7,27,2023,12,44,2,595,6785,-426,6569,-2468,13547,7005,
555,7,27,2023,12,44,2,605,8329,-593,6196,-2893,13881,7178,
556,7,27,2023,12,44,2,615,9903,-1190,5100,-2801,14221,6972,
557,7,27,2023,12,44,2,625,10977,-559,3664,-2113,14410,6485,
558,7,27,2023,12,44,2,635,11995,1033,2131,-1668,14266,6063,
559,7,27,2023,12,44,2,645,13423,1725,60,-1973,13824,5690,
560,7,27,2023,12,44,2,655,14950,2103,-2565,-2371,12903,5038,
561,7,27,2023,12,44,2,665,15884,3244,-5707,-2444,11269,4119,
562,7,27,2023,12,44,2,675,15830,4203,-9159,-2293,9057,3090,
563,7,27,2023,12,44,2,685,15030,3796,-11769,-1624,6373,1919,
564,7,27,2023,12,44,2,695,13691,2513,-12560,-168,3428,369,
565,7,27,2023,12,44,2,705,13217,2350,-11179,1383,536,-1201,
566,7,27,2023,12,44,2,715,13784,3901,-12909,1542,-2242,-2258,
567,7,27,2023,12,44,2,725,12454,4951,-19587,570,-6997,-2758,
568,7,27,2023,12,44,2,735,11138,-1083,4556,988,-14037,-3058,
569,7,27,2023,12,44,2,745,23607,-1932,23357,1516,-10979,-2960,
570,7,27,2023,12,44,2,755,9255,-3301,4434,2882,-2265,-4471,
571,7,27,2023,12,44,2,765,8857,-6887,9203,4702,-4136,-3858,
572,7,27,2023,12,44,2,775,3621,4870,10879,2827,-3018,-1264,
573,7,27,2023,12,44,2,785,2465,944,5758,429,-996,-1762,
574,7,27,2023,12,44,2,795,1323,-871,3516,-359,-1865,-1041,
575,7,27,2023,12,44,2,805,2456,-243,1756,-447,-2291,-972,
576,7,27,2023,12,44,2,815,2602,-270,2622,-529,-1951,-749,
577,7,27,2023,12,44,2,825,3044,-1214,4274,-347,-1060,-541,
578,7,27,2023,12,44,2,835,3801,-1836,4218,-240,-709,-480,
579,7,27,2023,12,44,2,845,2641,-871,4074,-201,-979,-605,
580,7,27,2023,12,44,2,855,2637,-585,3621,-215,-1312,-665,
581,7,27,2023,12,44,2,865,2325,-588,3956,-292,-1463,-605,
582,7,27,2023,12,44,2,875,2728,-976,4755,-293,-1426,-549,
583,7,27,2023,12,44,2,885,2530,-1048,4164,-302,-1377,-500,
584,7,27,2023,12,44,2,895,1119,-1073,4993,-345,-1915,-531,
585,7,27,2023,12,44,2,905,1963,-1331,5060,-288,-2646,-673,
586,7,27,2023,12,44,2,915,2260,-513,4618,-347,-3653,-775,
587,7,27,2023,12,44,2,925,3041,-133,4394,-680,-4989,-812,
588,7,27,2023,12,44,2,935,2243,-640,4779,-724,-6465,-905,
589,7,27,2023,12,44,2,945,1649,-811,4657,-459,-7819,-1113,
590,7,27,2023,12,44,2,955,1667,-1245,3879,-328,-9088,-1370,
591,7,27,2023,12,44,2,965,1479,-731,3300,-41,-10195,-1577,
592,7,27,2023,12,44,2,975,2960,-1009,4240,264,-11379,-1963,
593,7,27,2023,12,44,2,985,2521,-576,3001,373,-11777,-1929,
594,7,27,2023,12,44,2,995,2290,-40,2555,154,-12005,-1842,
595,7,27,2023,12,44,3,5,5496,394,2357,-188,-12368,-1618,
596,7,27,2023,12,44,3,25,5267,932,1985,-1119,-12486,-590,
597,7,27,2023,12,44,3,35,5111,680,2110,-1722,-11895,40,
598,7,27,2023,12,44,3,45,5550,-994,3492,-1776,-11332,303,
599,7,27,2023,12,44,3,55,3268,-432,1930,-1165,-10704,321,
600,7,27,2023,12,44,3,65,4770,-777,2747,-1200,-10609,530,
601,7,27,2023,12,44,3,75,3446,-1414,2275,-1048,-10429,394,
602,7,27,2023,12,44,3,85,3350,-551,1708,-587,-10837,64,
603,7,27,2023,12,44,3,95,5110,-77,2616,-861,-11471,113,
604,7,27,2023,12,44,3,105,5432,527,3085,-1758,-11151,529,
605,7,27,2023,12,44,3,115,5383,-438,3251,-2982,-10497,837,
606,7,27,2023,12,44,3,125,5241,-556,5551,-3778,-9521,735,
607,7,27,2023,12,44,3,135,11958,-871,9360,-4276,-7488,-947,
608,7,27,2023,12,44,3,145,8525,-2222,9508,-3409,-3261,-2804,
609,7,27,2023,12,44,3,155,6644,-2707,8986,-2356,147,-4389,
610,7,27,2023,12,44,3,165,5652,-3426,8699,-1373,1803,-5984,
611,7,27,2023,12,44,3,175,4542,-4331,8161,-441,2633,-7318,
612,7,27,2023,12,44,3,185,4739,-4780,7770,466,3281,-8228,
613,7,27,2023,12,44,3,195,5164,-4817,7495,994,4305,-8499,
614,7,27,2023,12,44,3,205,4728,-5030,6990,1058,5786,-8028,
615,7,27,2023,12,44,3,215,3552,-5485,6195,1053,7328,-6928,
616,7,27,2023,12,44,3,225,2391,-5962,5168,1477,8452,-5502,
617,7,27,2023,12,44,3,235,1749,-6102,4373,2331,9071,-4033,
618,7,27,2023,12,44,3,245,1856,-5340,4025,3080,9523,-2526,
619,7,27,2023,12,44,3,255,2220,-4105,3933,2998,10063,-828,
620,7,27,2023,12,44,3,265,2303,-3366,3667,1908,10752,958,
621,7,27,2023,12,44,3,275,2463,-3386,3319,432,11362,2444,
622,7,27,2023,12,44,3,285,2696,-3691,2997,-676,11780,3438,
623,7,27,2023,12,44,3,295,3024,-3578,2924,-1169,11963,4004,
624,7,27,2023,12,44,3,305,3591,-3152,3154,-1364,12006,4338,
625,7,27,2023,12,44,3,315,4274,-2895,3544,-1609,12091,4624,
626,7,27,2023,12,44,3,325,4595,-2905,3929,-1840,12304,4958,
627,7,27,2023,12,44,3,335,4643,-2570,4371,-1930,12492,5382,
628,7,27,2023,12,44,3,345,4782,-1821,5037,-2082,12576,5942,
629,7,27,2023,12,44,3,355,5300,-918,5862,-2494,12605,6595,
630,7,27,2023,12,44,3,365,6255,-401,6288,-3176,12744,7195,
631,7,27,2023,12,44,3,375,7656,-441,6188,-3739,12989,7498,
632,7,27,2023,12,44,3,385,9847,-1324,5511,-3768,13413,7288,
633,7,27,2023,12,44,3,395,11202,-1283,4002,-2984,14028,6658,
634,7,27,2023,12,44,3,405,11226,1447,2307,-2246,14212,6142,
635,7,27,2023,12,44,3,415,12428,2495,550,-2773,13658,5926,
636,7,27,2023,12,44,3,425,14810,2202,-1538,-3541,12562,5477,
637,7,27,2023,12,44,3,435,16662,2888,-4399,-3540,11079,4840,
638,7,27,2023,12,44,3,445,16656,3831,-8219,-2955,9262,4152,
639,7,27,2023,12,44,3,455,15234,3424,-11640,-1707,6808,3109,
640,7,27,2023,12,44,3,465,13657,2572,-12846,308,3624,1373,
641,7,27,2023,12,44,3,475,13548,2797,-11034,2052,303,-313,
642,7,27,2023,12,44,3,485,13121,3208,-10670,2312,-2533,-1073,
643,7,27,2023,12,44,3,495,12857,5132,-16807,2114,-6376,-1597,
644,7,27,2023,12,44,3,505,7608,3450,-294,2827,-12766,-2571,
645,7,27,2023,12,44,3,515,16233,4277,19887,2351,-12197,-3235,
646,7,27,2023,12,44,3,525,11343,-3034,9108,1877,-5093,-4592,
647,7,27,2023,12,44,3,535,11971,-11616,7904,4385,-4816,-4359,
648,7,27,2023,12,44,3,545,6314,4809,10939,3854,-3735,-1124,
649,7,27,2023,12,44,3,555,3027,4135,7233,979,-519,-1510,
650,7,27,2023,12,44,3,565,3874,-1367,3193,-197,-963,-844,
651,7,27,2023,12,44,3,575,1820,-652,2502,-329,-1807,-559,
652,7,27,2023,12,44,3,585,2149,-813,2858,-448,-1774,-616,
653,7,27,2023,12,44,3,595,2773,-1159,3277,-365,-1280,-577,
654,7,27,2023,12,44,3,605,2137,-921,3886,-242,-772,-534,
655,7,27,2023,12,44,3,615,1594,-962,5091,-169,-753,-655,
656,7,27,2023,12,44,3,625,2534,-861,4383,-199,-896,-519,
657,7,27,2023,12,44,3,635,2486,-453,4105,-248,-1024,-415,
658,7,27,2023,12,44,3,645,3492,-975,3801,-275,-1123,-390,
659,7,27,2023,12,44,3,655,2658,-1055,4032,-275,-1324,-432,
660,7,27,2023,12,44,3,665,2872,-1029,3592,-321,-1538,-493,
661,7,27,2023,12,44,3,675,1830,-1032,3917,-429,-1849,-523,
662,7,27,2023,12,44,3,685,1174,-942,5084,-382,-2510,-643,
663,7,27,2023,12,44,3,695,2689,-750,4457,-393,-3167,-693,
664,7,27,2023,12,44,3,705,1503,-269,4789,-605,-3998,-647,
665,7,27,2023,12,44,3,715,2000,-937,4719,-809,-4879,-745,
666,7,27,2023,12,44,3,725,2472,-590,4028,-631,-5965,-881,
667,7,27,2023,12,44,3,735,2584,-461,3345,-638,-7265,-1036,
668,7,27,2023,12,44,3,745,1914,-819,3627,-547,-8504,-1237,
669,7,27,2023,12,44,3,755,2417,-737,3364,-276,-9392,-1374,
670,7,27,2023,12,44,3,765,2621,-1108,2836,-179,-10011,-1413,
671,7,27,2023,12,44,3,775,2007,-430,2287,-1,-10275,-1385,
672,7,27,2023,12,44,3,785,3784,-664,3610,-78,-10868,-1517,
673,7,27,2023,12,44,3,795,2996,-578,2715,-386,-11073,-1190,
674,7,27,2023,12,44,3,805,2703,259,1916,-895,-11061,-721,
675,7,27,2023,12,44,3,815,5720,225,1629,-1252,-11610,-450,
676,7,27,2023,12,44,3,825,5684,798,2030,-1588,-11839,-30,
677,7,27,2023,12,44,3,835,4376,339,1808,-2429,-11542,588,
678,7,27,2023,12,44,3,845,4469,-142,2417,-2911,-11354,968,
679,7,27,2023,12,44,3,855,5094,72,3447,-3130,-11213,1274,
680,7,27,2023,12,44,3,865,3464,27,2340,-3469,-11241,1524,
681,7,27,2023,12,44,3,885,3723,-804,2740,-4237,-11919,1828,
682,7,27,2023,12,44,3,895,4657,-424,2267,-4309,-12362,1565,
683,7,27,2023,12,44,3,905,6165,-2217,3704,-5039,-12369,1032,
684,7,27,2023,12,44,3,915,6802,-3891,4205,-4914,-11147,283,
685,7,27,2023,12,44,3,925,6141,-3394,4036,-4736,-10114,-297,
686,7,27,2023,12,44,3,935,7784,-6341,5661,-3777,-8906,-1732,
687,7,27,2023,12,44,3,945,16549,-8071,10737,-1002,-6784,-3130,
688,7,27,2023,12,44,3,955,8871,-5702,9987,2444,-968,-3487,
689,7,27,2023,12,44,3,965,4681,-2685,8699,3708,2474,-3854,
690,7,27,2023,12,44,3,975,3363,-1375,7816,2588,3796,-4480,
691,7,27,2023,12,44,3,985,2701,-1724,6769,515,4743,-4995,
692,7,27,2023,12,44,3,995,2957,-2868,6102,-976,5815,-5184,
693,7,27,2023,12,44,4,5,2969,-3928,5533,-1270,7044,-5105,
694,7,27,2023,12,44,4,15,2458,-4613,4888,-591,8391,-4867,
695,7,27,2023,12,44,4,25,1875,-4798,4394,676,9565,-4539,
696,7,27,2023,12,44,4,35,1718,-4152,4144,1936,10428,-4073,
697,7,27,2023,12,44,4,45,1930,-2981,4057,2450,11216,-3357,
698,7,27,2023,12,44,4,55,2113,-2093,3920,1885,12052,-2307,
699,7,27,2023,12,44,4,65,2205,-2103,3588,669,12820,-1072,
700,7,27,2023,12,44,4,75,2293,-2571,3186,-422,13337,6,
701,7,27,2023,12,44,4,85,2485,-2836,2995,-987,13531,786,
702,7,27,2023,12,44,4,95,2982,-2652,3119,-1223,13480,1393,
703,7,27,2023,12,44,4,105,3686,-2442,3478,-1497,13361,2027,
704,7,27,2023,12,44,4,115,4460,-2527,3868,-1848,13341,2796,
705,7,27,2023,12,44,4,125,4987,-2702,4333,-2013,13426,3713,
706,7,27,2023,12,44,4,135,5445,-2377,4970,-1945,13474,4699,
707,7,27,2023,12,44,4,145,6312,-1852,5490,-1930,13501,5685,
708,7,27,2023,12,44,4,155,7611,-1697,5691,-2012,13572,6612,
709,7,27,2023,12,44,4,165,9333,-1682,4871,-1902,13694,7373,
710,7,27,2023,12,44,4,175,10526,-869,3306,-1527,13757,7867,
711,7,27,2023,12,44,4,185,11780,398,1351,-1268,13591,8156,
712,7,27,2023,12,44,4,195,13139,1049,-881,-1203,13273,8159,
713,7,27,2023,12,44,4,205,14494,1557,-3093,-954,12582,7585,
714,7,27,2023,12,44,4,215,15627,2567,-5565,-630,11364,6348,
715,7,27,2023,12,44,4,225,15803,3724,-8436,-571,9612,4577,
716,7,27,2023,12,44,4,235,15625,4310,-10866,-838,7332,2471,
717,7,27,2023,12,44,4,245,14662,3200,-12466,-950,4670,373,
718,7,27,2023,12,44,4,255,13397,2520,-13716,54,1346,-1768,
719,7,27,2023,12,44,4,265,16572,4292,-17408,1373,-3013,-3458,
720,7,27,2023,12,44,4,275,12452,4544,-12223,2007,-9109,-4163,
721,7,27,2023,12,44,4,285,18734,-1576,16161,1490,-11276,-2564,
722,7,27,2023,12,44,4,295,15218,-369,14043,2013,-3844,-1777,
723,7,27,2023,12,44,4,305,986,-1916,2918,2851,-1397,-3597,
724,7,27,2023,12,44,4,315,5358,-5133,10468,3629,-4337,-2686,
725,7,27,2023,12,44,4,325,3225,3765,7024,1750,-2260,-1292,
726,7,27,2023,12,44,4,335,4610,138,3653,294,-547,-1521,
727,7,27,2023,12,44,4,345,2282,-916,3149,-238,-1088,-904,
728,7,27,2023,12,44,4,355,875,-716,3355,-351,-1249,-717,
729,7,27,2023,12,44,4,365,3931,-648,3969,-296,-1104,-729,
730,7,27,2023,12,44,4,375,4432,-764,4113,-313,-921,-501,
731,7,27,2023,12,44,4,385,1724,-1793,4032,-295,-935,-510,
732,7,27,2023,12,44,4,395,1176,-1094,3658,-134,-1199,-835,
733,7,27,2023,12,44,4,405,2989,-139,4415,-162,-1527,-886,
734,7,27,2023,12,44,4,415,3837,-569,3303,-231,-1327,-596,
735,7,27,2023,12,44,4,425,742,-1638,4638,-198,-1373,-580,
736,7,27,2023,12,44,4,435,2379,-1764,5215,-156,-1737,-793,
737,7,27,2023,12,44,4,445,2156,-1676,4284,-126,-2247,-970,
738,7,27,2023,12,44,4,455,2785,-599,4064,33,-3368,-1299,
739,7,27,2023,12,44,4,465,2815,35,4737,-149,-4664,-1286,
740,7,27,2023,12,44,4,475,2284,-550,4979,-295,-5811,-1206,
741,7,27,2023,12,44,4,485,1699,-745,4645,-90,-7167,-1286,
742,7,27,2023,12,44,4,495,1309,-1163,4515,108,-8584,-1466,
743,7,27,2023,12,44,4,505,1412,-1015,4693,479,-9880,-1881,
744,7,27,2023,12,44,4,515,1822,-1196,4249,764,-10972,-2198,
745,7,27,2023,12,44,4,525,2500,-151,3171,1075,-11745,-2507,
746,7,27,2023,12,44,4,535,3509,-201,2228,886,-12540,-2615,
747,7,27,2023,12,44,4,545,3718,155,2853,842,-13256,-2552,
748,7,27,2023,12,44,4,555,4452,658,2708,528,-13456,-2086,
749,7,27,2023,12,44,4,565,5210,543,2601,5,-13517,-1557,
750,7,27,2023,12,44,4,575,4327,977,1900,-395,-13104,-1021,
751,7,27,2023,12,44,4,585,3894,-200,2864,-475,-11894,-328,
752,7,27,2023,12,44,4,595,4438,-170,2422,-431,-11383,50,
753,7,27,2023,12,44,4,605,3854,-848,1223,-293,-11353,125,
754,7,27,2023,12,44,4,615,4766,-597,2107,227,-11719,-4,
755,7,27,2023,12,44,4,625,5663,-1245,3275,469,-11590,-122,
756,7,27,2023,12,44,4,635,3456,-1307,2664,871,-11347,-395,
757,7,27,2023,12,44,4,645,5793,-102,4113,1125,-11301,-746,
758,7,27,2023,12,44,4,655,6444,1099,5220,-48,-10313,-430,
759,7,27,2023,12,44,4,665,11983,317,8837,-2178,-9147,-1187,
760,7,27,2023,12,44,4,675,9491,-1745,9438,-3028,-5072,-2292,
761,7,27,2023,12,44,4,685,7795,-2346,9048,-2810,-1449,-3446,
762,7,27,2023,12,44,4,695,6620,-2908,8681,-2260,460,-4637,
763,7,27,2023,12,44,4,705,5232,-4186,8087,-1507,1355,-5623,
764,7,27,2023,12,44,4,715,4992,-4992,7718,-274,1849,-6436,
765,7,27,2023,12,44,4,725,5234,-5037,7566,949,2648,-6769,
766,7,27,2023,12,44,4,745,4085,-4602,6708,1716,5663,-5332,
767,7,27,2023,12,44,4,755,2452,-4389,5711,1621,7091,-3983,
768,7,27,2023,12,44,4,765,1363,-4257,4745,1499,7946,-2636,
769,7,27,2023,12,44,4,775,1206,-4088,4188,1405,8465,-1415,
770,7,27,2023,12,44,4,785,1843,-3734,4102,1161,9075,-160,
771,7,27,2023,12,44,4,795,2284,-3524,3985,724,10026,1149,
772,7,27,2023,12,44,4,805,2485,-3234,3700,241,11109,2192,
773,7,27,2023,12,44,4,815,2680,-2718,3402,-341,12040,2812,
774,7,27,2023,12,44,4,825,2972,-2370,3241,-1074,12688,3158,
775,7,27,2023,12,44,4,835,3362,-2274,3254,-1814,13079,3368,
776,7,27,2023,12,44,4,845,4246,-2329,3512,-2443,13332,3534,
777,7,27,2023,12,44,4,855,4973,-2697,3716,-2866,13645,3799,
778,7,27,2023,12,44,4,865,5260,-2886,3974,-2919,13966,4232,
779,7,27,2023,12,44,4,875,5425,-2329,4492,-2803,14118,4866,
780,7,27,2023,12,44,4,885,5954,-1659,5199,-2941,14135,5661,
781,7,27,2023,12,44,4,895,6869,-1155,6163,-3351,14196,6499,
782,7,27,2023,12,44,4,905,8717,-401,6732,-3865,14342,7333,
783,7,27,2023,12,44,4,915,11048,-250,5959,-4476,14743,8079,
784,7,27,2023,12,44,4,925,12333,-317,4051,-4579,15148,8573,
785,7,27,2023,12,44,4,935,13206,244,1888,-3949,15163,8590,
786,7,27,2023,12,44,4,945,14403,1265,-397,-3083,14804,7987,
787,7,27,2023,12,44,4,955,15483,2823,-2834,-2474,13900,6858,
788,7,27,2023,12,44,4,965,16087,4337,-5478,-2366,12134,5520,
789,7,27,2023,12,44,4,975,16570,4606,-8301,-2391,9643,3956,
790,7,27,2023,12,44,4,985,16927,4087,-10623,-1898,7006,1967,
791,7,27,2023,12,44,4,995,15837,3366,-11822,-774,4507,-122,
792,7,27,2023,12,44,5,5,14275,2817,-11261,494,1930,-1706,
793,7,27,2023,12,44,5,15,13059,1769,-9319,1112,-541,-2254,
794,7,27,2023,12,44,5,25,10370,-531,-10753,1848,-3022,-2089,
795,7,27,2023,12,44,5,35,5206,5277,-8169,4475,-7749,-1994,
796,7,27,2023,12,44,5,45,5493,3569,12955,3966,-11055,-1166,
797,7,27,2023,12,44,5,55,7125,8864,12493,2592,-8508,-2789,
798,7,27,2023,12,44,5,65,15062,-2413,8719,2035,-6550,-5356,
799,7,27,2023,12,44,5,75,17737,-10610,10798,4278,-5936,-3833,
800,7,27,2023,12,44,5,85,3132,3624,9034,3383,-3067,-1100,
801,7,27,2023,12,44,5,95,1589,4806,6812,703,-1346,-1504,
802,7,27,2023,12,44,5,105,3112,-1147,4030,-735,-1813,-852,
803,7,27,2023,12,44,5,115,781,-2134,2358,-757,-2241,-586,
804,7,27,2023,12,44,5,125,1860,-1566,2905,-567,-2096,-811,
805,7,27,2023,12,44,5,135,3820,-1074,3118,-337,-1449,-815,
806,7,27,2023,12,44,5,145,4217,-759,3418,-112,-1069,-833,
807,7,27,2023,12,44,5,155,2765,-1194,3794,-10,-900,-841,
808,7,27,2023,12,44,5,165,1745,-781,3914,-4,-1002,-768,
809,7,27,2023,12,44,5,175,3256,-397,3649,15,-1133,-730,
810,7,27,2023,12,44,5,185,791,-1040,4612,-55,-1102,-578,
811,7,27,2023,12,44,5,195,2511,-973,5186,-122,-1495,-649,
812,7,27,2023,12,44,5,205,2603,-1273,4575,-146,-1859,-596,
813,7,27,2023,12,44,5,215,1153,-733,4659,-51,-2581,-681,
814,7,27,2023,12,44,5,225,2826,-167,4534,-185,-3750,-774,
815,7,27,2023,12,44,5,235,3037,-26,4673,-439,-5086,-724,
816,7,27,2023,12,44,5,245,2327,-568,4150,-421,-6328,-735,
817,7,27,2023,12,44,5,255,1173,-482,4396,-275,-7777,-824,
818,7,27,2023,12,44,5,265,1518,-820,5225,-208,-9156,-1089,
819,7,27,2023,12,44,5,275,2143,-843,3823,31,-10148,-1345,
820,7,27,2023,12,44,5,285,1499,-574,3857,294,-11192,-1533,
821,7,27,2023,12,44,5,295,2980,-352,3448,409,-11871,-1748,
822,7,27,2023,12,44,5,305,3703,-424,2134,160,-12344,-1730,
823,7,27,2023,12,44,5,315,4096,173,1835,-51,-12906,-1534,
824,7,27,2023,12,44,5,325,4243,226,1915,-609,-13016,-1020,
825,7,27,2023,12,44,5,335,5123,535,1643,-924,-12992,-672,
826,7,27,2023,12,44,5,345,6163,777,3543,-1651,-12741,-30,
827,7,27,2023,12,44,5,355,3913,-1042,1953,-2232,-12118,372,
828,7,27,2023,12,44,5,365,3781,813,2000,-1654,-11438,666,
829,7,27,2023,12,44,5,375,5112,-674,2731,-1832,-11127,919,
830,7,27,2023,12,44,5,385,3331,-1206,1149,-1648,-10903,955,
831,7,27,2023,12,44,5,395,4330,-1170,1775,-1010,-11449,427,
832,7,27,2023,12,44,5,405,4388,-619,2450,-760,-11592,274,
833,7,27,2023,12,44,5,415,5476,-131,2990,-1010,-11607,241,
834,7,27,2023,12,44,5,425,6131,-219,4191,-1969,-11327,571,
835,7,27,2023,12,44,5,435,5247,-159,4659,-3326,-10187,865,
836,7,27,2023,12,44,5,445,8746,-955,6999,-4711,-8514,371,
837,7,27,2023,12,44,5,455,13186,-3326,10380,-4691,-5928,-1380,
838,7,27,2023,12,44,5,465,7777,-3949,9223,-3084,-1086,-2783,
839,7,27,2023,12,44,5,475,5920,-3380,8713,-1332,1448,-4404,
840,7,27,2023,12,44,5,485,4519,-2936,8080,-408,2487,-5777,
841,7,27,2023,12,44,5,495,4091,-2990,7517,-220,3132,-6689,
842,7,27,2023,12,44,5,505,4573,-3127,7261,-375,3924,-7055,
843,7,27,2023,12,44,5,515,4353,-3501,6760,-666,5173,-6814,
844,7,27,2023,12,44,5,525,3481,-4015,5992,-729,6613,-6110,
845,7,27,2023,12,44,5,535,2658,-4689,5207,-224,7814,-5175,
846,7,27,2023,12,44,5,545,2399,-5066,4663,816,8670,-4216,
847,7,27,2023,12,44,5,555,2684,-4686,4441,1916,9528,-3217,
848,7,27,2023,12,44,5,565,2783,-3722,4220,2339,10599,-2044,
849,7,27,2023,12,44,5,575,2668,-2846,3851,1766,11691,-770,
850,7,27,2023,12,44,5,585,2677,-2641,3423,460,12563,399,
851,7,27,2023,12,44,5,605,3242,-3489,2557,-1715,13424,1912,
852,7,27,2023,12,44,5,615,3790,-3284,2678,-2066,13402,2419,
853,7,27,2023,12,44,5,625,4463,-2965,3004,-2413,13321,3052,
854,7,27,2023,12,44,5,635,4839,-3051,3334,-2833,13342,3853,
855,7,27,2023,12,44,5,645,4967,-3077,3845,-3058,13352,4761,
856,7,27,2023,12,44,5,655,5012,-2421,4667,-3119,13294,5742,
857,7,27,2023,12,44,5,665,5308,-1325,5685,-3400,13211,6743,
858,7,27,2023,12,44,5,675,5935,-413,6524,-4014,13158,7700,
859,7,27,2023,12,44,5,685,7142,81,6729,-4681,13133,8446,
860,7,27,2023,12,44,5,695,8941,-182,6034,-4957,13190,8810,
861,7,27,2023,12,44,5,705,10663,-92,4881,-4339,13204,8784,
862,7,27,2023,12,44,5,715,12318,1046,3341,-3139,13131,8526,
863,7,27,2023,12,44,5,725,14046,2185,1104,-2080,12993,8041,
864,7,27,2023,12,44,5,735,15132,2411,-1822,-1238,12556,7147,
865,7,27,2023,12,44,5,745,15503,2336,-5207,-202,11303,5635,
866,7,27,2023,12,44,5,755,15808,2642,-8565,923,9137,3521,
867,7,27,2023,12,44,5,765,16249,3146,-10968,1575,6570,1313,
868,7,27,2023,12,44,5,775,15962,2956,-12007,1627,3899,-205,
869,7,27,2023,12,44,5,785,14776,1915,-11761,1611,1184,-600,
870,7,27,2023,12,44,5,795,13265,1286,-10065,1855,-1490,-126,
871,7,27,2023,12,44,5,805,10796,1543,-10735,1857,-4247,434,
872,7,27,2023,12,44,5,815,5651,3586,-9320,1759,-8538,592,
873,7,27,2023,12,44,5,825,6195,1004,10275,1720,-11992,421,
874,7,27,2023,12,44,5,835,10056,8631,14321,2008,-9382,-2679,
875,7,27,2023,12,44,5,845,15514,-4106,7376,1650,-5553,-5374,
876,7,27,2023,12,44,5,855,18545,-12570,9504,4359,-4503,-4059,
877,7,27,2023,12,44,5,865,1396,5275,8828,3128,-2185,-804,
878,7,27,2023,12,44,5,875,1665,3910,6995,855,-624,-1692,
879,7,27,2023,12,44,5,885,3059,-1055,3374,-265,-1157,-872,
880,7,27,2023,12,44,5,895,-41,-1762,3038,-456,-1785,-590,
881,7,27,2023,12,44,5,905,3010,-1194,3219,-515,-1830,-794,
882,7,27,2023,12,44,5,915,4272,-974,3171,-339,-1435,-770,
883,7,27,2023,12,44,5,925,4239,-399,3363,-219,-1123,-684,
884,7,27,2023,12,44,5,935,1505,-927,3762,-233,-909,-590,
885,7,27,2023,12,44,5,945,2140,-696,3898,-168,-1117,-584,
886,7,27,2023,12,44,5,955,2807,-935,3905,-153,-1192,-470,
887,7,27,2023,12,44,5,965,1538,-1353,5311,-72,-1308,-548,
888,7,27,2023,12,44,5,975,2181,-859,5061,-124,-1579,-566,
889,7,27,2023,12,44,5,985,1966,-1245,4322,-301,-2214,-631,
890,7,27,2023,12,44,5,995,3541,-423,4270,-243,-3394,-791,
891,7,27,2023,12,44,6,5,2144,431,4716,-432,-4741,-666,
892,7,27,2023,12,44,6,15,1929,-383,5288,-739,-6127,-579,
893,7,27,2023,12,44,6,25,1610,-786,5332,-591,-7691,-733,
894,7,27,2023,12,44,6,35,993,-1136,4688,-411,-9316,-1029,
895,7,27,2023,12,44,6,45,930,-1244,4762,-179,-10927,-1516,
896,7,27,2023,12,44,6,55,2250,-1053,4112,203,-12306,-2004,
897,7,27,2023,12,44,6,65,2518,-425,2832,577,-13404,-2342,
898,7,27,2023,12,44,6,75,3550,-268,2564,453,-14544,-2507,
899,7,27,2023,12,44,6,85,3807,56,3010,105,-15041,-2246,
900,7,27,2023,12,44,6,95,4163,772,2216,-554,-15033,-1495,
901,7,27,2023,12,44,6,105,5239,1394,2069,-1094,-14901,-862,
902,7,27,2023,12,44,6,115,7647,515,3820,-1837,-14465,-131,
903,7,27,2023,12,44,6,125,3768,-714,2735,-2013,-13087,447,
904,7,27,2023,12,44,6,135,5045,220,2142,-1132,-12305,441,
905,7,27,2023,12,44,6,145,4427,-544,928,-1234,-11866,780,
906,7,27,2023,12,44,6,155,5074,-1223,1247,-802,-11517,728,
907,7,27,2023,12,44,6,165,6431,-1283,2178,355,-11072,273,
908,7,27,2023,12,44,6,175,5467,416,2700,1097,-10089,157,
909,7,27,2023,12,44,6,185,4546,574,3261,707,-9086,260,
910,7,27,2023,12,44,6,195,7218,2398,5050,-565,-8338,-323,
911,7,27,2023,12,44,6,205,9841,719,8071,-1776,-7015,-2290,
912,7,27,2023,12,44,6,215,6437,294,7485,-2277,-3446,-3468,
913,7,27,2023,12,44,6,225,5567,335,7309,-2857,-1375,-4511,
914,7,27,2023,12,44,6,235,4924,-679,6996,-3667,-168,-5386,
915,7,27,2023,12,44,6,245,5000,-2608,7073,-3944,490,-6264,
916,7,27,2023,12,44,6,255,5250,-4538,7343,-3162,746,-7100,
917,7,27,2023,12,44,6,265,5464,-5868,7397,-1521,1052,-7746,
918,7,27,2023,12,44,6,275,6070,-6640,7503,391,1844,-7910,
919,7,27,2023,12,44,6,285,6094,-6592,7422,2103,3263,-7389,
920,7,27,2023,12,44,6,295,4827,-5753,6770,3179,4992,-6263,
921,7,27,2023,12,44,6,305,2822,-4515,5797,3251,6365,-4801,
922,7,27,2023,12,44,6,315,1601,-3783,4834,2462,7113,-3249,
923,7,27,2023,12,44,6,325,1588,-3828,4257,1331,7577,-1694,
924,7,27,2023,12,44,6,335,2039,-4331,4013,443,8165,-166,
925,7,27,2023,12,44,6,345,2442,-4607,3796,183,9004,1200,
926,7,27,2023,12,44,6,355,2820,-3934,3651,279,9951,2238,
927,7,27,2023,12,44,6,365,3199,-2843,3542,-8,10913,3008,
928,7,27,2023,12,44,6,375,3395,-2400,3337,-871,11798,3634,
929,7,27,2023,12,44,6,385,3502,-2525,3119,-1730,12425,4049,
930,7,27,2023,12,44,6,395,3883,-2762,3096,-2172,12766,4228,
931,7,27,2023,12,44,6,405,4313,-2735,3299,-2259,12961,4338,
932,7,27,2023,12,44,6,415,4523,-2378,3703,-2271,13092,4621,
933,7,27,2023,12,44,6,425,4711,-1861,4366,-2448,13146,5194,
934,7,27,2023,12,44,6,435,5400,-1400,5167,-2845,13208,5938,
935,7,27,2023,12,44,6,445,6076,-1233,5759,-3259,13451,6702,
936,7,27,2023,12,44,6,465,7505,-906,6526,-3344,14063,7672,
937,7,27,2023,12,44,6,475,8803,-779,6423,-3174,14308,7707,
938,7,27,2023,12,44,6,485,9659,-765,5631,-2939,14528,7406,
939,7,27,2023,12,44,6,495,10131,411,4425,-2690,14468,6822,
940,7,27,2023,12,44,6,505,11302,2371,3041,-2989,13919,6413,
941,7,27,2023,12,44,6,515,13218,2961,939,-3853,13145,6098,
942,7,27,2023,12,44,6,525,14706,2856,-2046,-4184,12095,5411,
943,7,27,2023,12,44,6,535,15190,2886,-6229,-3304,10523,4176,
944,7,27,2023,12,44,6,545,14691,3079,-10883,-1374,8325,2371,
945,7,27,2023,12,44,6,555,16747,5009,-13091,449,5502,-103,
946,7,27,2023,12,44,6,565,18061,7016,-12811,-173,2947,-2385,
947,7,27,2023,12,44,6,575,14903,4237,-11478,-2140,658,-2868,
948,7,27,2023,12,44,6,585,12149,-114,-8670,-1487,-1908,-2189,
949,7,27,2023,12,44,6,595,10171,2084,-10138,1949,-4895,-2798,
950,7,27,2023,12,44,6,605,4628,5757,-4749,3862,-9827,-5582,
951,7,27,2023,12,44,6,615,10343,1178,15124,3397,-12035,-6463,
952,7,27,2023,12,44,6,625,17802,-4452,13257,2324,-8065,-5520,
953,7,27,2023,12,44,6,635,15987,-9161,8136,5136,-6121,-4738,
954,7,27,2023,12,44,6,645,9722,4437,11798,5024,-5242,-2171,
955,7,27,2023,12,44,6,655,2279,5354,8083,1068,-1036,-1635,
956,7,27,2023,12,44,6,665,2110,-1221,3803,-437,-862,-945,
957,7,27,2023,12,44,6,675,2401,-730,1850,-354,-1614,-579,
958,7,27,2023,12,44,6,685,1450,-981,3166,-559,-1796,-596,
959,7,27,2023,12,44,6,695,2859,-1461,4469,-449,-1274,-445,
960,7,27,2023,12,44,6,705,4600,-2183,4291,-177,-756,-558,
961,7,27,2023,12,44,6,715,2829,-713,4377,-100,-929,-720,
962,7,27,2023,12,44,6,725,1723,-187,3821,-247,-1344,-751,
963,7,27,2023,12,44,6,735,2529,-866,3311,-280,-1512,-679,
964,7,27,2023,12,44,6,745,2158,-1002,4257,-152,-1419,-591,
965,7,27,2023,12,44,6,755,2512,-515,5020,-125,-1462,-520,
966,7,27,2023,12,44,6,765,1544,-1600,5049,-286,-1765,-495,
967,7,27,2023,12,44,6,775,2386,-1657,4814,-255,-2619,-683,
968,7,27,2023,12,44,6,785,3137,-130,4649,-225,-3981,-876,
969,7,27,2023,12,44,6,795,2049,-179,5213,-559,-5552,-929,
970,7,27,2023,12,44,6,805,1641,-1114,5014,-688,-7079,-1085,
971,7,27,2023,12,44,6,815,698,-1074,5566,-375,-8884,-1414,
972,7,27,2023,12,44,6,825,1638,-1168,4546,-131,-10545,-1817,
973,7,27,2023,12,44,6,835,1149,-1057,4489,283,-12131,-2169,
974,7,27,2023,12,44,6,845,2437,-837,4246,587,-13283,-2531,
975,7,27,2023,12,44,6,855,3345,-18,2540,503,-14082,-2614,
976,7,27,2023,12,44,6,865,4892,131,2734,-4,-14815,-2471,
977,7,27,2023,12,44,6,875,5088,565,2791,-708,-14896,-1910,
978,7,27,2023,12,44,6,885,5410,169,3086,-1462,-14642,-1502,
979,7,27,2023,12,44,6,895,5582,-531,3584,-2036,-13515,-990,
980,7,27,2023,12,44,6,905,5113,-814,3251,-1874,-12354,-995,
981,7,27,2023,12,44,6,915,4073,-725,2541,-2117,-11282,-627,
982,7,27,2023,12,44,6,925,3204,-1147,1303,-2333,-10721,-634,
983,7,27,2023,12,44,6,935,4523,-1287,1967,-2010,-10822,-1051,
984,7,27,2023,12,44,6,945,5669,-212,2484,-1857,-10177,-1244,
985,7,27,2023,12,44,6,955,4532,-381,2816,-2259,-9289,-1301,
986,7,27,2023,12,44,6,965,8023,-76,5490,-2772,-8309,-1648,
987,7,27,2023,12,44,6,975,10212,-1102,8535,-2801,-6253,-2743,
988,7,27,2023,12,44,6,985,5463,-881,7369,-2437,-2454,-3119,
989,7,27,2023,12,44,6,995,3767,-693,6662,-2188,-495,-3701,
990,7,27,2023,12,44,7,5,2441,-965,5992,-2242,162,-4387,
991,7,27,2023,12,44,7,15,2017,-1825,5734,-2206,54,-5193,
992,7,27,2023,12,44,7,25,3076,-3050,6283,-1687,-442,-5977,
993,7,27,2023,12,44,7,35,4630,-4458,7254,-645,-687,-6513,
994,7,27,2023,12,44,7,45,5854,-5932,8033,890,-257,-6617,
995,7,27,2023,12,44,7,55,6307,-7007,8171,2852,1024,-6205,
996,7,27,2023,12,44,7,65,5601,-6737,7712,4909,2772,-5370,
997,7,27,2023,12,44,7,75,4349,-5304,7000,6080,4483,-4298,
998,7,27,2023,12,44,7,85,2631,-3745,6201,5688,5850,-2974,
999,7,27,2023,12,44,7,95,1729,-2818,5341,4096,6754,-1473,
1000,7,27,2023,12,44,7,105,1568,-3240,4392,2158,7530,61,
1001,7,27,2023,12,44,7,115,1450,-4136,3588,970,8302,1263,
1002,7,27,2023,12,44,7,125,1651,-4222,3229,844,9004,1958,
1003,7,27,2023,12,44,7,135,2457,-3307,3312,972,9707,2315,
1004,7,27,2023,12,44,7,145,3173,-2360,3324,481,10588,2574,
1005,7,27,2023,12,44,7,155,3555,-2251,3065,-586,11532,2767,
1006,7,27,2023,12,44,7,165,3688,-2623,2801,-1528,12271,2869,
1007,7,27,2023,12,44,7,175,4109,-2750,2827,-2016,12694,2901,
1008,7,27,2023,12,44,7,185,4766,-2745,3069,-2327,12982,3013,
1009,7,27,2023,12,44,7,195,5154,-2867,3421,-2629,13249,3402,
1010,7,27,2023,12,44,7,205,5228,-2877,3855,-2831,13420,4132,
1011,7,27,2023,12,44,7,215,5338,-2345,4565,-2992,13404,5087,
1012,7,27,2023,12,44,7,225,6025,-1477,5453,-3391,13265,6102,
1013,7,27,2023,12,44,7,235,7288,-904,6067,-4097,13232,6982,
1014,7,27,2023,12,44,7,245,9327,-1019,6040,-4731,13329,7619,
1015,7,27,2023,12,44,7,255,11284,-1432,5343,-4770,13607,7901,
1016,7,27,2023,12,44,7,265,12074,-34,3885,-4195,13870,7837,
1017,7,27,2023,12,44,7,275,12550,2267,1861,-3998,13745,7662,
1018,7,27,2023,12,44,7,285,13518,3194,-324,-4466,13094,7271,
1019,7,27,2023,12,44,7,295,14667,4083,-2365,-4706,11772,6506,
1020,7,27,2023,12,44,7,305,15703,5852,-4628,-4534,9881,5499,
1021,7,27,2023,12,44,7,325,15782,5309,-10020,-2990,6267,1048,
1022,7,27,2023,12,44,7,335,14734,4912,-10864,-997,4107,-2249,
1023,7,27,2023,12,44,7,345,14330,4840,-9685,469,1592,-4453,
1024,7,27,2023,12,44,7,355,12913,1973,-8891,1009,-764,-4886,
1025,7,27,2023,12,44,7,365,10499,2248,-12501,3394,-3897,-5029,
1026,7,27,2023,12,44,7,375,6746,8694,-3285,5904,-9290,-5245,
1027,7,27,2023,12,44,7,385,9413,2484,16137,3609,-10198,-3228,
1028,7,27,2023,12,44,7,395,10525,2209,11197,2283,-6131,-3306,
1029,7,27,2023,12,44,7,405,12281,-7926,8971,4020,-4731,-4486,
1030,7,27,2023,12,44,7,415,8290,-2656,9902,4375,-4493,-2096,
1031,7,27,2023,12,44,7,425,2937,6680,6972,1860,-1668,-1259,
1032,7,27,2023,12,44,7,435,4910,-206,3207,203,-753,-1590,
1033,7,27,2023,12,44,7,445,2006,-1053,2174,49,-1253,-902,
1034,7,27,2023,12,44,7,455,1935,-461,3575,-26,-1313,-891,
1035,7,27,2023,12,44,7,465,2788,-1083,4637,-113,-968,-757,
1036,7,27,2023,12,44,7,475,2437,-1805,5485,25,-662,-692,
1037,7,27,2023,12,44,7,485,2637,-1021,4712,119,-695,-809,
1038,7,27,2023,12,44,7,495,3580,92,3652,15,-1265,-845,
1039,7,27,2023,12,44,7,505,3559,-473,3716,-99,-1530,-705,
1040,7,27,2023,12,44,7,515,2719,-1609,3756,-25,-1319,-558,
1041,7,27,2023,12,44,7,525,859,-1522,4786,60,-1417,-567,
1042,7,27,2023,12,44,7,535,2766,-1076,5131,28,-1899,-767,
1043,7,27,2023,12,44,7,545,1362,-1349,4952,50,-2613,-803,
1044,7,27,2023,12,44,7,555,1317,-251,5368,30,-3819,-947,
1045,7,27,2023,12,44,7,565,3134,264,5064,-107,-5475,-1030,
1046,7,27,2023,12,44,7,575,2086,-418,4831,3,-7416,-1172,
1047,7,27,2023,12,44,7,585,1276,-1087,5182,228,-9411,-1499,
1048,7,27,2023,12,44,7,595,1020,-1418,4968,446,-10974,-1976,
1049,7,27,2023,12,44,7,605,1540,-824,4092,807,-12248,-2470,
1050,7,27,2023,12,44,7,615,1940,-207,4294,1084,-13435,-2971,
1051,7,27,2023,12,44,7,625,2400,-796,3166,764,-13945,-3037,
1052,7,27,2023,12,44,7,635,4096,675,2016,814,-14414,-2979,
1053,7,27,2023,12,44,7,645,6123,726,2235,321,-14754,-2476,
1054,7,27,2023,12,44,7,655,5640,-286,3053,32,-14476,-2109,
1055,7,27,2023,12,44,7,665,5516,-515,3663,-91,-13690,-1759,
1056,7,27,2023,12,44,7,675,4470,-987,2689,-197,-12575,-1450,
1057,7,27,2023,12,44,7,685,6536,-1483,3770,-90,-12130,-1484,
1058,7,27,2023,12,44,7,695,3565,-1007,3146,-498,-11186,-1207,
1059,7,27,2023,12,44,7,705,4172,-1334,2615,-775,-10963,-1453,
1060,7,27,2023,12,44,7,715,4821,-471,3062,-899,-10983,-1772,
1061,7,27,2023,12,44,7,725,4050,143,3132,-1255,-10558,-2050,
1062,7,27,2023,12,44,7,735,9515,1488,6444,-2259,-9727,-2340,
1063,7,27,2023,12,44,7,745,11695,-1693,9202,-3214,-7376,-3298,
1064,7,27,2023,12,44,7,755,6053,-2817,7758,-2675,-3132,-4026,
1065,7,27,2023,12,44,7,765,4165,-1986,7193,-1447,-1019,-5195,
1066,7,27,2023,12,44,7,775,3378,-1640,7000,-963,-617,-5967,
1067,7,27,2023,12,44,7,785,3847,-2571,7357,-1024,-833,-6187,
1068,7,27,2023,12,44,7,795,4703,-4542,7788,-730,-933,-6033,
1069,7,27,2023,12,44,7,805,5183,-6351,7781,503,-412,-5688,
1070,7,27,2023,12,44,7,815,5352,-6553,7664,2431,790,-5074,
1071,7,27,2023,12,44,7,825,4656,-5316,7300,3866,2412,-4014,
1072,7,27,2023,12,44,7,835,3134,-4137,6489,3989,4044,-2530,
1073,7,27,2023,12,44,7,845,1759,-3433,5569,3097,5197,-946,
1074,7,27,2023,12,44,7,855,1075,-3625,4682,1917,5914,457,
1075,7,27,2023,12,44,7,865,1198,-4029,4253,1156,6467,1533,
1076,7,27,2023,12,44,7,875,1845,-3902,4259,910,7202,2325,
1077,7,27,2023,12,44,7,885,2547,-3355,4327,717,8288,2985,
1078,7,27,2023,12,44,7,895,3183,-2969,4243,291,9637,3446,
1079,7,27,2023,12,44,7,905,3615,-2821,3966,-307,11036,3692,
1080,7,27,2023,12,44,7,915,3674,-2673,3567,-854,12215,3802,
1081,7,27,2023,12,44,7,925,3666,-2494,3207,-1326,12933,3882,
1082,7,27,2023,12,44,7,935,3955,-2572,3096,-1740,13184,4054,
1083,7,27,2023,12,44,7,945,4361,-2892,3294,-1982,13194,4392,
1084,7,27,2023,12,44,7,955,4815,-2945,3819,-2001,13121,4942,
1085,7,27,2023,12,44,7,965,5454,-2411,4568,-2045,13047,5721,
1086,7,27,2023,12,44,7,975,6059,-1802,5252,-2407,13139,6570,
1087,7,27,2023,12,44,7,985,6622,-1155,6084,-3007,13383,7237,
1088,7,27,2023,12,44,7,995,7944,-516,6595,-3835,13753,7588,
1089,7,27,2023,12,44,8,5,9616,-749,6209,-4738,14322,7535,
1090,7,27,2023,12,44,8,15,10968,-1812,5046,-5103,14908,7023,
1091,7,27,2023,12,44,8,25,11832,-2104,3467,-4617,15202,6203,
1092,7,27,2023,12,44,8,35,12551,892,1657,-4136,15032,5562,
1093,7,27,2023,12,44,8,45,13680,3629,-494,-5098,14224,5777,
1094,7,27,2023,12,44,8,55,15000,4337,-3200,-6701,12821,6018,
1095,7,27,2023,12,44,8,65,15317,5204,-5874,-7211,10629,5712,
1096,7,27,2023,12,44,8,75,15696,5495,-8406,-6274,7944,4678,
1097,7,27,2023,12,44,8,85,16076,4364,-10687,-4106,5394,2683,
1098,7,27,2023,12,44,8,95,15619,3455,-11372,-1150,3060,-51,
1099,7,27,2023,12,44,8,105,15168,3964,-9995,1185,743,-2066,
1100,7,27,2023,12,44,8,115,13071,1140,-9377,2167,-1511,-2339,
1101,7,27,2023,12,44,8,125,11696,1414,-14324,5866,-5177,-2884,
1102,7,27,2023,12,44,8,135,6970,13516,-1704,9893,-11111,-4540,
1103,7,27,2023,12,44,8,145,12365,9442,18485,6073,-11205,-3707,
1104,7,27,2023,12,44,8,155,13826,6799,12910,3766,-6048,-4734,
1105,7,27,2023,12,44,8,165,12516,-8635,9993,5035,-4595,-5222,
1106,7,27,2023,12,44,8,185,5452,-375,2695,237,-560,-1222,
1107,7,27,2023,12,44,8,195,3630,-416,1965,44,-1465,-631,
1108,7,27,2023,12,44,8,205,1320,-481,3034,-140,-1521,-691,
1109,7,27,2023,12,44,8,215,2813,-1271,4247,-164,-1218,-701,
1110,7,27,2023,12,44,8,225,2727,-1577,4953,-41,-829,-669,
1111,7,27,2023,12,44,8,235,1649,-923,5116,78,-873,-760,
1112,7,27,2023,12,44,8,245,1979,-1253,4379,5,-1224,-706,
1113,7,27,2023,12,44,8,255,3082,-1093,3681,54,-1382,-717,
1114,7,27,2023,12,44,8,265,3936,-597,3837,174,-1482,-707,
1115,7,27,2023,12,44,8,275,2710,-482,4320,74,-1654,-569,
1116,7,27,2023,12,44,8,285,1293,-1897,4521,-34,-2052,-575,
1117,7,27,2023,12,44,8,295,1327,-1084,5257,167,-2966,-791,
1118,7,27,2023,12,44,8,305,2186,-165,5065,76,-4042,-854,
1119,7,27,2023,12,44,8,315,1466,-567,5527,-35,-5442,-855,
1120,7,27,2023,12,44,8,325,1657,-821,5412,99,-6931,-1022,
1121,7,27,2023,12,44,8,335,1892,-645,4877,246,-8650,-1337,
1122,7,27,2023,12,44,8,345,1621,-944,4278,404,-10444,-1879,
1123,7,27,2023,12,44,8,355,1600,-610,4199,738,-12002,-2357,
1124,7,27,2023,12,44,8,365,2524,160,3190,904,-13014,-2691,
1125,7,27,2023,12,44,8,375,2295,-721,2751,603,-13519,-2588,
1126,7,27,2023,12,44,8,385,5501,-1,3581,613,-13908,-2505,
1127,7,27,2023,12,44,8,395,3256,203,2509,103,-13561,-1828,
1128,7,27,2023,12,44,8,405,5230,-145,2768,-314,-13441,-1622,
1129,7,27,2023,12,44,8,415,5640,-253,2199,-544,-13098,-1371,
1130,7,27,2023,12,44,8,425,5598,-618,2460,-402,-12449,-1206,
1131,7,27,2023,12,44,8,435,5752,-611,3188,-195,-11752,-1057,
1132,7,27,2023,12,44,8,445,4002,-1012,3193,-613,-10981,-605,
1133,7,27,2023,12,44,8,455,3931,-1374,2847,-598,-10586,-716,
1134,7,27,2023,12,44,8,465,5535,-902,4022,-149,-10479,-1088,
1135,7,27,2023,12,44,8,475,3882,198,3488,-127,-9841,-1314,
1136,7,27,2023,12,44,8,485,5969,2894,6096,-1137,-9339,-1719,
1137,7,27,2023,12,44,8,495,11058,959,9505,-2959,-7803,-3443,
1138,7,27,2023,12,44,8,505,6491,-1226,8608,-3444,-4036,-4722,
1139,7,27,2023,12,44,8,515,4613,-1470,7723,-2967,-1443,-6063,
1140,7,27,2023,12,44,8,525,3655,-1746,7198,-2513,-496,-7129,
1141,7,27,2023,12,44,8,535,3921,-2966,7295,-2152,-443,-7615,
1142,7,27,2023,12,44,8,545,5275,-4949,7776,-1420,-488,-7551,
1143,7,27,2023,12,44,8,555,5689,-6922,7850,62,197,-7031,
1144,7,27,2023,12,44,8,565,5508,-7377,7556,2271,1396,-6125,
1145,7,27,2023,12,44,8,575,4671,-6257,6955,4098,2774,-4853,
1146,7,27,2023,12,44,8,585,3056,-4774,6125,4541,4041,-3234,
1147,7,27,2023,12,44,8,595,1824,-3536,5393,3625,4836,-1428,
1148,7,27,2023,12,44,8,605,1450,-3496,4807,1940,5424,477,
1149,7,27,2023,12,44,8,615,1609,-4097,4425,606,6140,2141,
1150,7,27,2023,12,44,8,625,1937,-4181,4236,225,7119,3284,
1151,7,27,2023,12,44,8,635,2243,-3552,4092,361,8318,3907,
1152,7,27,2023,12,44,8,645,2722,-2474,3983,282,9581,4099,
1153,7,27,2023,12,44,8,655,3194,-1706,3825,-433,10832,4084,
1154,7,27,2023,12,44,8,665,3356,-1567,3547,-1489,11935,3994,
1155,7,27,2023,12,44,8,675,3466,-1743,3287,-2350,12688,3839,
1156,7,27,2023,12,44,8,685,3721,-1871,3194,-2830,13053,3652,
1157,7,27,2023,12,44,8,695,4224,-2041,3404,-3076,13155,3551,
1158,7,27,2023,12,44,8,705,4759,-2216,3937,-3176,13177,3754,
1159,7,27,2023,12,44,8,715,5270,-2006,4763,-3232,13213,4333,
1160,7,27,2023,12,44,8,725,6142,-1326,5854,-3478,13331,5134,
1161,7,27,2023,12,44,8,735,7371,-424,6655,-4161,13697,5921,
1162,7,27,2023,12,44,8,745,9072,-348,6502,-5176,14277,6501,
1163,7,27,2023,12,44,8,755,10554,-1344,5263,-5769,14912,6634,
1164,7,27,2023,12,44,8,765,11306,-1573,3568,-5366,15147,6271,
1165,7,27,2023,12,44,8,775,11896,263,1908,-4684,14745,5781,
1166,7,27,2023,12,44,8,785,13090,2316,273,-4910,13810,5603,
1167,7,27,2023,12,44,8,795,14340,3572,-1470,-5866,12498,5598,
1168,7,27,2023,12,44,8,805,15234,5457,-3360,-6639,10621,5695,
1169,7,27,2023,12,44,8,815,16077,6498,-5618,-6878,8382,5757,
1170,7,27,2023,12,44,8,825,16088,5192,-8300,-5892,6303,4987,
1171,7,27,2023,12,44,8,835,14790,3409,-10431,-2964,4243,2620,
1172,7,27,2023,12,44,8,845,13757,4062,-10136,650,1834,-758,
1173,7,27,2023,12,44,8,855,14284,5039,-7930,2229,-382,-2899,
1174,7,27,2023,12,44,8,865,12661,2867,-6136,1753,-1800,-2740,
1175,7,27,2023,12,44,8,875,8066,-1778,-7366,2880,-3582,-1933,
1176,7,27,2023,12,44,8,885,3619,6569,-3207,7530,-7441,-2674,
1177,7,27,2023,12,44,8,895,4172,6837,11666,6024,-9008,-2338,
1178,7,27,2023,12,44,8,905,7483,8281,10961,3439,-6737,-2540,
1179,7,27,2023,12,44,8,915,11987,-1268,9801,3930,-4953,-4788,
1180,7,27,2023,12,44,8,925,12677,-7695,9477,4909,-4369,-3277,
1181,7,27,2023,12,44,8,935,3798,3677,7823,3010,-2673,-1056,
1182,7,27,2023,12,44,8,945,2774,3880,6017,892,-591,-1427,
1183,7,27,2023,12,44,8,955,3650,-976,2901,36,-637,-846,
1184,7,27,2023,12,44,8,965,1524,-1257,3164,-112,-1152,-506,
1185,7,27,2023,12,44,8,975,2532,-289,3131,-283,-1211,-496,
1186,7,27,2023,12,44,8,985,3001,-1584,4397,-300,-931,-531,
1187,7,27,2023,12,44,8,995,2813,-1412,4926,-189,-596,-462,
1188,7,27,2023,12,44,9,5,2517,-814,4151,-147,-780,-443,
1189,7,27,2023,12,44,9,15,3260,-971,3804,-158,-1269,-600,
1190,7,27,2023,12,44,9,25,3637,-1333,3455,-44,-1326,-631,
1191,7,27,2023,12,44,9,45,1183,-1675,4921,16,-1437,-550,
1192,7,27,2023,12,44,9,55,2522,-942,4753,-4,-1893,-683,
1193,7,27,2023,12,44,9,65,971,-1011,4980,-141,-2561,-667,
1194,7,27,2023,12,44,9,75,1736,-269,5034,-19,-3625,-781,
1195,7,27,2023,12,44,9,85,2555,-377,4862,-251,-5188,-898,
1196,7,27,2023,12,44,9,95,2007,-802,4992,-239,-7020,-1137,
1197,7,27,2023,12,44,9,105,956,-1085,4984,76,-8815,-1466,
1198,7,27,2023,12,44,9,115,1316,-1119,4260,410,-10350,-1982,
1199,7,27,2023,12,44,9,125,1854,-689,3868,774,-11595,-2336,
1200,7,27,2023,12,44,9,135,3252,-666,4223,1217,-12527,-2764,
1201,7,27,2023,12,44,9,145,2245,-531,3223,1021,-12853,-2602,
1202,7,27,2023,12,44,9,155,2780,-626,2548,922,-13120,-2646,
1203,7,27,2023,12,44,9,165,6217,553,2214,769,-13483,-2451,
1204,7,27,2023,12,44,9,175,5553,-137,2200,465,-13386,-2232,
1205,7,27,2023,12,44,9,185,6608,-989,3837,206,-13007,-2099,
1206,7,27,2023,12,44,9,195,3420,-1453,3276,328,-12081,-2040,
1207,7,27,2023,12,44,9,205,3988,90,3217,400,-11725,-1805,
1208,7,27,2023,12,44,9,215,4303,-1021,3371,-330,-11672,-1530,
1209,7,27,2023,12,44,9,225,3001,-849,3017,-596,-11638,-1370,
1210,7,27,2023,12,44,9,235,4699,-27,3375,-532,-11911,-1607,
1211,7,27,2023,12,44,9,245,3999,370,2579,-1103,-11862,-1509,
1212,7,27,2023,12,44,9,255,6206,-132,3961,-1720,-11763,-1578,
1213,7,27,2023,12,44,9,265,9850,560,7678,-2436,-9888,-1654,
1214,7,27,2023,12,44,9,275,12689,-2004,10481,-3105,-6693,-2945,
1215,7,27,2023,12,44,9,285,6381,-2610,8732,-2128,-1876,-3976,
1216,7,27,2023,12,44,9,295,4183,-1944,7899,-883,392,-5093,
1217,7,27,2023,12,44,9,305,3209,-2181,7495,-287,725,-5863,
1218,7,27,2023,12,44,9,315,3037,-3434,7089,146,609,-6147,
1219,7,27,2023,12,44,9,325,3793,-4262,7044,887,805,-6101,
1220,7,27,2023,12,44,9,335,4393,-4601,6941,1649,1763,-5633,
1221,7,27,2023,12,44,9,345,3878,-4739,6469,2192,3269,-4762,
1222,7,27,2023,12,44,9,355,2686,-4348,5781,2489,4635,-3716,
1223,7,27,2023,12,44,9,365,1949,-3876,5160,2347,5578,-2562,
1224,7,27,2023,12,44,9,375,1755,-3857,4610,1825,6392,-1316,
1225,7,27,2023,12,44,9,385,1874,-3989,4250,1231,7233,-144,
1226,7,27,2023,12,44,9,395,2220,-3922,4036,712,8166,890,
1227,7,27,2023,12,44,9,405,2945,-3614,3903,201,9238,1714,
1228,7,27,2023,12,44,9,415,3477,-3242,3659,-448,10431,2285,
1229,7,27,2023,12,44,9,425,3933,-3140,3352,-1223,11476,2715,
1230,7,27,2023,12,44,9,435,4111,-3183,3033,-1830,12213,3126,
1231,7,27,2023,12,44,9,445,4320,-2917,2902,-2168,12534,3567,
1232,7,27,2023,12,44,9,455,4828,-2692,2932,-2479,12576,4041,
1233,7,27,2023,12,44,9,465,5082,-2909,3068,-2742,12548,4562,
1234,7,27,2023,12,44,9,475,5101,-3043,3394,-2722,12455,5163,
1235,7,27,2023,12,44,9,485,5283,-2469,4128,-2578,12269,5867,
1236,7,27,2023,12,44,9,495,5832,-1431,4993,-2820,12160,6602,
1237,7,27,2023,12,44,9,505,6425,-669,5694,-3628,12312,7261,
1238,7,27,2023,12,44,9,515,7359,-400,5959,-4602,12626,7660,
1239,7,27,2023,12,44,9,525,8793,-852,5495,-5242,13079,7615,
1240,7,27,2023,12,44,9,535,9902,-953,4137,-5125,13557,7125,
1241,7,27,2023,12,44,9,545,10116,763,2524,-4627,13636,6536,
1242,7,27,2023,12,44,9,555,11131,2628,728,-4725,13115,6175,
1243,7,27,2023,12,44,9,565,12936,3632,-1380,-5339,12233,5930,
1244,7,27,2023,12,44,9,575,14315,4458,-3506,-5627,10987,5552,
1245,7,27,2023,12,44,9,585,14930,5626,-5568,-5205,9247,4772,
1246,7,27,2023,12,44,9,595,15416,6043,-7517,-4291,7278,3296,
1247,7,27,2023,12,44,9,605,15202,5287,-9167,-2880,5379,1107,
1248,7,27,2023,12,44,9,615,14364,4455,-9838,-974,3287,-1159,
1249,7,27,2023,12,44,9,625,13417,4010,-9294,736,884,-2440,
1250,7,27,2023,12,44,9,635,12135,3474,-7710,1699,-1504,-2193,
1251,7,27,2023,12,44,9,645,8898,-292,-7174,2369,-3623,-860,
1252,7,27,2023,12,44,9,655,3876,3026,-9059,5684,-7035,-1176,
1253,7,27,2023,12,44,9,665,4187,5466,7024,7077,-10451,-3075,
1254,7,27,2023,12,44,9,675,17309,5334,19163,5154,-8487,-4077,
1255,7,27,2023,12,44,9,685,15992,924,7593,5473,-3182,-5307,
1256,7,27,2023,12,44,9,695,10415,-2808,11009,4395,-3305,-2561,
1257,7,27,2023,12,44,9,705,-1561,3108,9674,1618,-1298,-727,
1258,7,27,2023,12,44,9,715,2639,-128,6433,690,-621,-1793,
1259,7,27,2023,12,44,9,725,3692,618,2877,302,-1549,-895,
1260,7,27,2023,12,44,9,735,2485,-1675,2100,-76,-1805,-839,
1261,7,27,2023,12,44,9,745,1051,-403,3090,-219,-1785,-712,
1262,7,27,2023,12,44,9,755,5048,-1052,3403,-132,-1274,-765,
1263,7,27,2023,12,44,9,765,4437,-688,4385,20,-764,-673,
1264,7,27,2023,12,44,9,775,1746,-1149,4149,-71,-858,-437,
1265,7,27,2023,12,44,9,785,2233,-1004,3738,-10,-1191,-536,
1266,7,27,2023,12,44,9,795,2083,-1490,4287,36,-1312,-494,
1267,7,27,2023,12,44,9,805,3127,-804,4689,107,-1308,-451,
1268,7,27,2023,12,44,9,815,1950,-1127,4907,-48,-1428,-354,
1269,7,27,2023,12,44,9,825,2171,-1070,4496,-85,-1972,-431,
1270,7,27,2023,12,44,9,835,2499,20,4748,-155,-3143,-560,
1271,7,27,2023,12,44,9,845,2432,247,5010,-467,-4558,-568,
1272,7,27,2023,12,44,9,855,1520,-549,5236,-697,-5994,-503,
1273,7,27,2023,12,44,9,865,1574,-857,4932,-522,-7618,-686,
1274,7,27,2023,12,44,9,875,1262,-764,4528,-334,-9211,-857,
1275,7,27,2023,12,44,9,885,952,-1258,4836,74,-10693,-1427,
1276,7,27,2023,12,44,9,905,1913,-727,3121,736,-12630,-1897,
1277,7,27,2023,12,44,9,915,4065,-584,2349,576,-13510,-2127,
1278,7,27,2023,12,44,9,925,4865,119,3009,378,-14106,-2015,
1279,7,27,2023,12,44,9,935,5032,-615,2897,-78,-14176,-1771,
1280,7,27,2023,12,44,9,945,5691,419,3658,-166,-14118,-1471,
1281,7,27,2023,12,44,9,955,4413,-799,3350,-914,-13202,-941,
1282,7,27,2023,12,44,9,965,5165,-1073,3714,-350,-12533,-1119,
1283,7,27,2023,12,44,9,975,4093,-288,3255,-109,-11821,-821,
1284,7,27,2023,12,44,9,985,4150,-1067,2184,-159,-11535,-718,
1285,7,27,2023,12,44,9,995,5315,-867,2419,398,-11606,-879,
1286,7,27,2023,12,44,10,5,5783,81,2922,768,-11184,-941,
1287,7,27,2023,12,44,10,15,5552,1088,4535,668,-10307,-906,
1288,7,27,2023,12,44,10,25,10197,1855,7470,-818,-8575,-1369,
1289,7,27,2023,12,44,10,35,9992,-64,9674,-2126,-5739,-2802,
1290,7,27,2023,12,44,10,45,4993,-354,7912,-2449,-1687,-3753,
1291,7,27,2023,12,44,10,55,3456,-701,7122,-2572,-81,-5131,
1292,7,27,2023,12,44,10,65,3140,-2042,6863,-2613,201,-6465,
1293,7,27,2023,12,44,10,75,3815,-3924,7157,-1949,49,-7481,
1294,7,27,2023,12,44,10,85,4645,-5633,7476,-489,148,-7973,
1295,7,27,2023,12,44,10,95,5009,-6850,7456,1512,1017,-7842,
1296,7,27,2023,12,44,10,105,4877,-7054,7122,3690,2436,-7129,
1297,7,27,2023,12,44,10,115,3866,-6216,6547,5296,4003,-5967,
1298,7,27,2023,12,44,10,125,2480,-4930,5925,5660,5310,-4460,
1299,7,27,2023,12,44,10,135,1316,-4069,5224,4812,6215,-2720,
1300,7,27,2023,12,44,10,145,902,-4017,4485,3266,6904,-890,
1301,7,27,2023,12,44,10,155,880,-4540,3836,1847,7547,756,
1302,7,27,2023,12,44,10,165,1101,-4908,3421,1142,8239,1981,
1303,7,27,2023,12,44,10,175,1664,-4606,3405,1030,8995,2742,
1304,7,27,2023,12,44,10,185,2547,-3746,3748,881,9879,3266,
1305,7,27,2023,12,44,10,195,3308,-3103,4002,280,10973,3763,
1306,7,27,2023,12,44,10,205,3660,-2949,3941,-553,12110,4199,
1307,7,27,2023,12,44,10,215,3738,-2932,3785,-1214,13013,4465,
1308,7,27,2023,12,44,10,225,3866,-2861,3897,-1609,13538,4586,
1309,7,27,2023,12,44,10,235,4322,-2524,4444,-1887,13764,4715,
1310,7,27,2023,12,44,10,245,5228,-1997,5309,-2309,13894,4960,
1311,7,27,2023,12,44,10,255,6273,-1789,6040,-2956,14149,5334,
1312,7,27,2023,12,44,10,265,6874,-1912,6796,-3500,14530,5759,
1313,7,27,2023,12,44,10,275,7885,-1489,7632,-3766,14803,6158,
1314,7,27,2023,12,44,10,285,9979,-976,7679,-4144,15001,6504,
1315,7,27,2023,12,44,10,295,11697,-1609,6348,-4623,15350,6575,
1316,7,27,2023,12,44,10,305,12089,-2121,4378,-4447,15491,6144,
1317,7,27,2023,12,44,10,315,12103,1362,2618,-4033,15002,5666,
1318,7,27,2023,12,44,10,325,12981,4232,652,-5029,13933,5958,
1319,7,27,2023,12,44,10,335,14176,4530,-2128,-6580,12469,6256,
1320,7,27,2023,12,44,10,345,15233,3125,-5878,-6405,10455,5972,
1321,7,27,2023,12,44,10,355,15619,2237,-10580,-3498,8060,4570,
1322,7,27,2023,12,44,10,365,15489,3931,-13620,523,5231,1935,
1323,7,27,2023,12,44,10,375,17334,6277,-13118,2247,2326,-1032,
1324,7,27,2023,12,44,10,385,16437,5895,-11338,645,101,-2623,
1325,7,27,2023,12,44,10,395,13473,2639,-9022,-1015,-2092,-2166,
1326,7,27,2023,12,44,10,405,11029,1109,-5843,-489,-4520,-1023,
1327,7,27,2023,12,44,10,415,4666,-1381,-3440,1198,-6645,-598,
1328,7,27,2023,12,44,10,425,-3729,3346,2542,4311,-9323,-1829,
1329,7,27,2023,12,44,10,435,-1919,3583,7899,3114,-10493,-2855,
1330,7,27,2023,12,44,10,445,23501,170,13686,3007,-10673,-5879,
1331,7,27,2023,12,44,10,455,24652,-8374,9668,6653,-4957,-6558,
1332,7,27,2023,12,44,10,465,823,2879,9735,3720,-1642,-1713,
1333,7,27,2023,12,44,10,475,550,5321,9035,1174,-306,-1498,
1334,7,27,2023,12,44,10,485,2944,-197,5969,346,-820,-1215,
1335,7,27,2023,12,44,10,495,3644,-1358,3361,-98,-1422,-612,
1336,7,27,2023,12,44,10,505,2630,-52,2229,-291,-1580,-558,
1337,7,27,2023,12,44,10,515,2239,-941,2234,-367,-1490,-546,
1338,7,27,2023,12,44,10,525,5315,-947,3430,-142,-873,-636,
1339,7,27,2023,12,44,10,535,2378,-865,4839,-190,-293,-332,
1340,7,27,2023,12,44,10,545,323,-1285,5342,-264,-613,-301,
1341,7,27,2023,12,44,10,555,2958,-1100,4400,-162,-1028,-388,
1342,7,27,2023,12,44,10,565,2067,-1192,4870,-144,-1240,-383,
1343,7,27,2023,12,44,10,575,2250,-1155,4965,-169,-1475,-428,
1344,7,27,2023,12,44,10,585,2754,-865,4553,-287,-2049,-556,
1345,7,27,2023,12,44,10,595,2831,-934,4062,-437,-2911,-606,
1346,7,27,2023,12,44,10,605,1658,-828,4653,-419,-4171,-628,
1347,7,27,2023,12,44,10,615,2237,-1300,4813,-589,-5553,-825,
1348,7,27,2023,12,44,10,625,875,-1628,5828,-615,-7140,-1103,
1349,7,27,2023,12,44,10,635,1935,-1186,4775,-286,-8737,-1596,
1350,7,27,2023,12,44,10,645,393,-802,4679,-130,-10350,-1890,
1351,7,27,2023,12,44,10,655,1960,-445,4609,157,-11896,-2350,
1352,7,27,2023,12,44,10,665,2770,395,3316,511,-13201,-2422,
1353,7,27,2023,12,44,10,675,3089,229,2952,396,-14388,-2435,
1354,7,27,2023,12,44,10,685,3981,-465,2871,128,-14929,-2212,
1355,7,27,2023,12,44,10,695,4749,568,2637,-417,-14776,-1639,
1356,7,27,2023,12,44,10,705,7437,-610,3537,-1259,-14444,-1368,
1357,7,27,2023,12,44,10,715,4938,-952,2759,-1594,-13028,-1031,
1358,7,27,2023,12,44,10,725,5803,-739,3675,-1350,-11594,-995,
1359,7,27,2023,12,44,10,735,4227,-533,2476,-1693,-10291,-628,
1360,7,27,2023,12,44,10,745,4023,-1090,1346,-2220,-9786,-452,
1361,7,27,2023,12,44,10,765,5138,-406,2707,-1294,-8863,-1256,
1362,7,27,2023,12,44,10,775,5269,-667,4414,-1101,-7837,-1396,
1363,7,27,2023,12,44,10,785,9365,-1475,7423,-1078,-6719,-1936,
1364,7,27,2023,12,44,10,795,4169,-578,6860,-527,-3684,-2380,
1365,7,27,2023,12,44,10,805,1379,583,6007,-470,-2178,-3109,
1366,7,27,2023,12,44,10,815,1038,859,5636,-1207,-2037,-3949,
1367,7,27,2023,12,44,10,825,2150,-181,5574,-2145,-2158,-4776,
1368,7,27,2023,12,44,10,835,3710,-1987,6025,-2455,-1856,-5537,
1369,7,27,2023,12,44,10,845,4484,-3353,6692,-1758,-1103,-6115,
1370,7,27,2023,12,44,10,855,4329,-4235,7062,-418,-229,-6366,
1371,7,27,2023,12,44,10,865,4026,-4888,7130,1130,596,-6238,
1372,7,27,2023,12,44,10,875,4235,-5083,6937,2580,1506,-5719,
1373,7,27,2023,12,44,10,885,4334,-4768,6629,3538,2753,-4796,
1374,7,27,2023,12,44,10,895,3834,-3984,6362,3641,4150,-3559,
1375,7,27,2023,12,44,10,905,2884,-3379,5735,2852,5453,-2115,
1376,7,27,2023,12,44,10,915,2170,-3249,4780,1676,6487,-660,
1377,7,27,2023,12,44,10,925,1752,-3453,3910,728,7244,523,
1378,7,27,2023,12,44,10,935,1782,-3428,3517,250,7831,1319,
1379,7,27,2023,12,44,10,945,2514,-2821,3662,-45,8424,1849,
1380,7,27,2023,12,44,10,955,3430,-2259,3844,-617,9270,2323,
1381,7,27,2023,12,44,10,965,3869,-2284,3701,-1391,10361,2736,
1382,7,27,2023,12,44,10,975,3939,-2426,3497,-1911,11329,2981,
1383,7,27,2023,12,44,10,985,4134,-2205,3417,-2120,11965,3126,
1384,7,27,2023,12,44,10,995,4433,-2000,3366,-2312,12352,3288,
1385,7,27,2023,12,44,11,5,4654,-2256,3397,-2531,12531,3544,
1386,7,27,2023,12,44,11,15,4820,-2561,3744,-2538,12500,3974,
1387,7,27,2023,12,44,11,25,5223,-2307,4469,-2376,12345,4652,
1388,7,27,2023,12,44,11,35,5760,-1529,5307,-2419,12249,5536,
1389,7,27,2023,12,44,11,45,6246,-993,5805,-2821,12313,6381,
1390,7,27,2023,12,44,11,55,6891,-507,5996,-3297,12366,6979,
1391,7,27,2023,12,44,11,65,8151,-323,5547,-3690,12320,7325,
1392,7,27,2023,12,44,11,75,9422,-510,4590,-3699,12264,7489,
1393,7,27,2023,12,44,11,85,10451,317,3527,-3170,12084,7571,
1394,7,27,2023,12,44,11,95,11674,1572,1895,-2725,11853,7642,
1395,7,27,2023,12,44,11,105,12985,2281,-406,-2557,11555,7549,
1396,7,27,2023,12,44,11,115,13653,2931,-3014,-2289,10859,7075,
1397,7,27,2023,12,44,11,125,13381,3867,-5633,-1896,9429,6027,
1398,7,27,2023,12,44,11,135,13009,4367,-7800,-1594,7315,4285,
1399,7,27,2023,12,44,11,145,13278,4103,-9130,-1329,4994,2070,
1400,7,27,2023,12,44,11,155,13382,3506,-9393,-926,2864,-15,
1401,7,27,2023,12,44,11,165,12742,3180,-8793,-463,1009,-1317,
1402,7,27,2023,12,44,11,175,11473,3138,-7770,-227,-683,-1599,
1403,7,27,2023,12,44,11,185,9284,2960,-6643,-326,-2303,-1187,
1404,7,27,2023,12,44,11,195,5591,2026,-6055,-506,-4130,-686,
1405,7,27,2023,12,44,11,205,-112,1856,-7662,423,-7299,-1710,
1406,7,27,2023,12,44,11,215,1588,291,260,2377,-11631,-5076,
1407,7,27,2023,12,44,11,225,25831,-9451,20505,4363,-10834,-7576,
1408,7,27,2023,12,44,11,235,16753,-4322,6356,6647,-1708,-5645,
1409,7,27,2023,12,44,11,245,200,4823,11226,3819,-2231,-2091,
1410,7,27,2023,12,44,11,255,1507,1331,9585,1883,-436,-2435,
1411,7,27,2023,12,44,11,265,6948,1834,3716,1031,-959,-2030,
1412,7,27,2023,12,44,11,275,4413,537,1827,199,-1471,-893,
1413,7,27,2023,12,44,11,285,2324,-202,2522,-92,-1369,-807,
1414,7,27,2023,12,44,11,295,2247,-1211,3681,-305,-1182,-522,
1415,7,27,2023,12,44,11,305,3686,-1656,5177,9,-436,-495,
1416,7,27,2023,12,44,11,315,2048,-933,6194,-10,-278,-369,
1417,7,27,2023,12,44,11,325,907,-937,5675,-165,-826,-393,
1418,7,27,2023,12,44,11,335,2867,-835,4080,-170,-1541,-499,
1419,7,27,2023,12,44,11,345,4052,-960,3512,-208,-2007,-617,
1420,7,27,2023,12,44,11,355,2253,-912,4824,-328,-2340,-512,
1421,7,27,2023,12,44,11,365,1391,-1030,5352,-244,-3067,-518,
1422,7,27,2023,12,44,11,375,1040,-1406,6114,-277,-4672,-695,
1423,7,27,2023,12,44,11,385,2729,-698,5312,-524,-6412,-790,
1424,7,27,2023,12,44,11,395,440,-696,5696,-459,-8381,-1003,
1425,7,27,2023,12,44,11,405,1435,-965,5682,-263,-10289,-1454,
1426,7,27,2023,12,44,11,415,2046,-503,4126,-57,-11956,-1773,
1427,7,27,2023,12,44,11,425,2648,27,3451,277,-13805,-2162,
1428,7,27,2023,12,44,11,435,2054,-127,3122,364,-14944,-2374,
1429,7,27,2023,12,44,11,445,3600,-430,2989,-70,-15457,-2359,
1430,7,27,2023,12,44,11,455,5885,549,3556,-600,-15396,-1814,
1431,7,27,2023,12,44,11,465,5056,427,1949,-1458,-14622,-1174,
1432,7,27,2023,12,44,11,475,7852,-842,3822,-2056,-13278,-568,
1433,7,27,2023,12,44,11,485,6358,-1028,2594,-1976,-10690,-330,
1434,7,27,2023,12,44,11,495,5542,-394,1295,-2429,-8756,100,
1435,7,27,2023,12,44,11,505,4190,-795,113,-3047,-7629,-50,
1436,7,27,2023,12,44,11,515,5569,-103,986,-2553,-6979,-862,
1437,7,27,2023,12,44,11,525,5861,1542,1921,-2627,-5883,-1851,
1438,7,27,2023,12,44,11,535,8041,-691,4200,-3042,-5212,-3376,
1439,7,27,2023,12,44,11,545,4469,-999,3976,-2307,-2940,-4147,
1440,7,27,2023,12,44,11,555,1935,-242,3603,-1406,-2349,-4699,
1441,7,27,2023,12,44,11,565,1334,58,3690,-948,-2984,-5121,
1442,7,27,2023,12,44,11,575,1492,-215,4196,-690,-3743,-5404,
1443,7,27,2023,12,44,11,585,1952,-593,4997,-349,-4235,-5658,
1444,7,27,2023,12,44,11,595,2779,-977,5833,34,-4344,-5971,
1445,7,27,2023,12,44,11,605,3594,-1325,6534,300,-3969,-6306,
1446,7,27,2023,12,44,11,625,4402,-2655,7762,439,-2477,-6682,
1447,7,27,2023,12,44,11,635,4788,-3723,8502,779,-1921,-6585,
1448,7,27,2023,12,44,11,645,5159,-5168,8798,1662,-1304,-6151,
1449,7,27,2023,12,44,11,655,5529,-6083,8750,3143,-295,-5383,
1450,7,27,2023,12,44,11,665,5773,-5713,8470,4618,1154,-4247,
1451,7,27,2023,12,44,11,675,4700,-4882,7710,5175,2876,-2728,
1452,7,27,2023,12,44,11,685,3214,-3909,6592,4672,4339,-1101,
1453,7,27,2023,12,44,11,695,2415,-3495,5365,3470,5408,390,
1454,7,27,2023,12,44,11,705,1990,-3555,4433,2273,6280,1465,
1455,7,27,2023,12,44,11,715,2150,-3363,4102,1443,7049,2078,
1456,7,27,2023,12,44,11,725,2755,-3034,4127,804,7958,2460,
1457,7,27,2023,12,44,11,735,3268,-2709,4102,151,9115,2709,
1458,7,27,2023,12,44,11,745,3645,-2461,3831,-614,10348,2800,
1459,7,27,2023,12,44,11,755,3776,-2528,3508,-1383,11445,2783,
1460,7,27,2023,12,44,11,765,3774,-2504,3320,-1981,12204,2797,
1461,7,27,2023,12,44,11,775,4580,-2819,3545,-2865,12808,3302,
1462,7,27,2023,12,44,11,785,5035,-3044,3926,-3065,12955,3935,
1463,7,27,2023,12,44,11,795,5190,-2768,4372,-3095,13066,4875,
1464,7,27,2023,12,44,11,805,5414,-2110,4999,-3213,13079,5979,
1465,7,27,2023,12,44,11,815,5963,-1350,5682,-3544,13023,7043,
1466,7,27,2023,12,44,11,825,6700,-690,6196,-4020,13006,7907,
1467,7,27,2023,12,44,11,835,8025,-581,6434,-4429,13021,8483,
1468,7,27,2023,12,44,11,845,9808,-886,6325,-4362,13185,8762,
1469,7,27,2023,12,44,11,855,11030,279,5521,-3694,13452,8890,
1470,7,27,2023,12,44,11,865,11930,2296,3989,-3246,13552,9000,
1471,7,27,2023,12,44,11,875,13102,3333,1730,-3350,13358,8836,
1472,7,27,2023,12,44,11,885,14100,3653,-762,-3257,12652,8087,
1473,7,27,2023,12,44,11,895,14849,4118,-3414,-2514,11248,6544,
1474,7,27,2023,12,44,11,905,15061,4446,-6632,-1409,9444,4220,
1475,7,27,2023,12,44,11,915,14966,4346,-9714,-228,7455,1475,
1476,7,27,2023,12,44,11,925,14295,3724,-11333,832,5133,-1023,
1477,7,27,2023,12,44,11,935,13838,2853,-11002,1646,2436,-2470,
1478,7,27,2023,12,44,11,945,13733,2787,-9136,1861,-116,-2517,
1479,7,27,2023,12,44,11,955,12043,2684,-7097,1014,-1922,-1334,
1480,7,27,2023,12,44,11,965,7583,1559,-7085,-49,-3582,-92,
1481,7,27,2023,12,44,11,975,2742,4085,-12420,-71,-7477,-874,
1482,7,27,2023,12,44,11,985,5235,736,4219,772,-13408,-3355,
1483,7,27,2023,12,44,11,995,24259,-3667,21344,1463,-12016,-5515,
1484,7,27,2023,12,44,12,5,18982,-11635,4872,4370,-3287,-5858,
1485,7,27,2023,12,44,12,15,6183,-363,9942,4841,-4030,-2599,
1486,7,27,2023,12,44,12,25,2052,6358,11498,1978,-1888,-1883,
1487,7,27,2023,12,44,12,35,4008,108,5554,284,-1019,-2018,
1488,7,27,2023,12,44,12,45,1790,368,2564,-147,-1954,-958,
1489,7,27,2023,12,44,12,55,2164,-319,2273,-451,-2252,-847,
1490,7,27,2023,12,44,12,65,2639,-701,3525,-534,-1787,-530,
1491,7,27,2023,12,44,12,75,4885,-2531,4126,-182,-1008,-590,
1492,7,27,2023,12,44,12,85,3612,-1354,4424,-24,-662,-578,
1493,7,27,2023,12,44,12,95,1354,-691,4193,-75,-988,-656,
1494,7,27,2023,12,44,12,105,2621,-357,3756,-112,-1471,-674,
1495,7,27,2023,12,44,12,115,1894,-1500,4644,-263,-1605,-552,
1496,7,27,2023,12,44,12,125,3243,-1425,4479,-134,-1578,-625,
1497,7,27,2023,12,44,12,135,1597,-691,4843,-125,-1962,-659,
1498,7,27,2023,12,44,12,145,1622,-411,5417,-217,-2925,-695,
1499,7,27,2023,12,44,12,155,2478,-443,4873,-454,-4319,-659,
1500,7,27,2023,12,44,12,165,2450,-400,5126,-710,-6070,-803,
1501,7,27,2023,12,44,12,175,2278,-644,4754,-624,-7709,-1006,
1502,7,27,2023,12,44,12,185,1253,-992,4735,-432,-9422,-1224,
1503,7,27,2023,12,44,12,195,1164,-1106,5163,-155,-11096,-1620,
1504,7,27,2023,12,44,12,205,2469,-773,3855,204,-12361,-1996,
1505,7,27,2023,12,44,12,215,1230,-328,3831,404,-13355,-2150,
1506,7,27,2023,12,44,12,225,3179,-544,3243,62,-14060,-2213,
1507,7,27,2023,12,44,12,235,5290,455,2451,-374,-14502,-1908,
1508,7,27,2023,12,44,12,245,5454,907,1871,-1230,-14538,-1183,
1509,7,27,2023,12,44,12,255,6441,290,3087,-1829,-14123,-775,
1510,7,27,2023,12,44,12,265,4798,-936,2613,-2127,-12759,-335,
1511,7,27,2023,12,44,12,275,5351,-139,2641,-1873,-11567,-186,
1512,7,27,2023,12,44,12,285,4024,-1144,2543,-2206,-11107,-166,
1513,7,27,2023,12,44,12,295,2904,-958,1887,-2385,-10428,-15,
1514,7,27,2023,12,44,12,305,5036,-1558,2152,-2046,-10147,-500,
1515,7,27,2023,12,44,12,315,4115,-181,1358,-1389,-9555,-1017,
1516,7,27,2023,12,44,12,325,5311,-216,2424,-1484,-9241,-1188,
1517,7,27,2023,12,44,12,335,7448,-317,4993,-1773,-7995,-1329,
1518,7,27,2023,12,44,12,345,9795,-1041,8064,-1546,-5640,-2390,
1519,7,27,2023,12,44,12,355,4127,180,6849,-847,-1962,-3132,
1520,7,27,2023,12,44,12,365,2359,1346,6164,-1132,-565,-3899,
1521,7,27,2023,12,44,12,375,1960,635,5756,-2299,-384,-4640,
1522,7,27,2023,12,44,12,385,2759,-1489,5885,-3033,-492,-5542,
1523,7,27,2023,12,44,12,395,4667,-3632,6834,-2513,-460,-6487,
1524,7,27,2023,12,44,12,405,6294,-4855,8003,-965,-48,-7037,
1525,7,27,2023,12,44,12,415,6817,-6232,8461,930,1047,-6915,
1526,7,27,2023,12,44,12,425,6118,-7143,8135,3101,2566,-6323,
1527,7,27,2023,12,44,12,435,4959,-6483,7367,5107,4056,-5521,
1528,7,27,2023,12,44,12,445,3563,-5098,6648,5869,5372,-4561,
1529,7,27,2023,12,44,12,455,2271,-3765,5926,5073,6354,-3389,
1530,7,27,2023,12,44,12,465,1666,-3232,5171,3186,7110,-1949,
1531,7,27,2023,12,44,12,485,1696,-4693,3860,-186,8541,845,
1532,7,27,2023,12,44,12,495,1972,-4799,3570,-411,9242,1764,
1533,7,27,2023,12,44,12,505,2547,-3856,3613,-352,9917,2432,
1534,7,27,2023,12,44,12,515,3165,-2761,3766,-894,10661,3081,
1535,7,27,2023,12,44,12,525,3329,-2347,3729,-1990,11433,3771,
1536,7,27,2023,12,44,12,535,3395,-2455,3650,-2990,12031,4311,
1537,7,27,2023,12,44,12,545,3700,-2524,3808,-3484,12350,4632,
1538,7,27,2023,12,44,12,555,4156,-2265,4325,-3582,12514,4934,
1539,7,27,2023,12,44,12,565,4619,-1714,5131,-3558,12638,5455,
1540,7,27,2023,12,44,12,575,5087,-863,6117,-3640,12788,6234,
1541,7,27,2023,12,44,12,585,5711,-42,6908,-3970,13014,7114,
1542,7,27,2023,12,44,12,595,6363,354,7409,-4321,13325,7909,
1543,7,27,2023,12,44,12,605,7692,598,7563,-4354,13565,8485,
1544,7,27,2023,12,44,12,615,9496,528,7059,-3944,13863,8690,
1545,7,27,2023,12,44,12,625,11011,857,5879,-3055,14261,8460,
1546,7,27,2023,12,44,12,635,12281,1740,4128,-2040,14620,7901,
1547,7,27,2023,12,44,12,645,13737,2065,1580,-1272,14805,7093,
1548,7,27,2023,12,44,12,655,14976,1531,-1721,-555,14413,5914,
1549,7,27,2023,12,44,12,665,15987,1360,-5332,350,12910,4194,
1550,7,27,2023,12,44,12,675,17007,2402,-8956,938,10416,2215,
1551,7,27,2023,12,44,12,685,17263,3001,-12153,882,7468,911,
1552,7,27,2023,12,44,12,695,15960,1939,-13807,832,4230,490,
1553,7,27,2023,12,44,12,705,15303,1767,-12941,1342,786,374,
1554,7,27,2023,12,44,12,715,14527,2488,-10290,1252,-2106,696,
1555,7,27,2023,12,44,12,725,10673,2317,-10862,358,-4459,1156,
1556,7,27,2023,12,44,12,735,3685,3471,-11522,483,-9015,547,
1557,7,27,2023,12,44,12,745,4438,1563,9815,1377,-14082,-1247,
1558,7,27,2023,12,44,12,755,16424,6869,15187,1054,-12171,-4603,
1559,7,27,2023,12,44,12,765,23422,-12017,9717,2837,-6978,-6953,
1560,7,27,2023,12,44,12,775,11877,-8282,10183,5282,-4914,-3820,
1561,7,27,2023,12,44,12,785,-155,8212,12189,2197,-2733,-1362,
1562,7,27,2023,12,44,12,795,5585,987,6853,-139,-1580,-1956,
1563,7,27,2023,12,44,12,805,1106,-1297,3590,-902,-2527,-819,
1564,7,27,2023,12,44,12,815,1998,-1789,1192,-999,-3102,-979,
1565,7,27,2023,12,44,12,825,4129,-737,1337,-704,-2768,-1206,
1566,7,27,2023,12,44,12,835,4764,-935,2326,-309,-1753,-926,
1567,7,27,2023,12,44,12,845,3277,-1451,3197,19,-646,-676,
1568,7,27,2023,12,44,12,855,86,-1169,5055,185,-312,-602,
1569,7,27,2023,12,44,12,865,3069,-506,4757,298,-683,-689,
1570,7,27,2023,12,44,12,875,2530,-1328,4613,170,-960,-592,
1571,7,27,2023,12,44,12,885,2106,-1099,4943,254,-1125,-647,
1572,7,27,2023,12,44,12,895,2969,-583,4445,207,-1797,-713,
1573,7,27,2023,12,44,12,905,2509,-347,4838,104,-2934,-775,
1574,7,27,2023,12,44,12,915,1823,-292,4907,-154,-4189,-664,
1575,7,27,2023,12,44,12,925,2406,-256,4930,-385,-5532,-566,
1576,7,27,2023,12,44,12,935,1669,-356,5383,-320,-6959,-620,
1577,7,27,2023,12,44,12,945,1301,-696,5256,-252,-8517,-855,
1578,7,27,2023,12,44,12,955,517,-1044,4800,-207,-10080,-1116,
1579,7,27,2023,12,44,12,965,2166,-837,3706,147,-11621,-1518,
1580,7,27,2023,12,44,12,975,3062,-640,2692,496,-12962,-1884,
1581,7,27,2023,12,44,12,985,3021,-1001,3182,423,-13931,-2041,
1582,7,27,2023,12,44,12,995,4226,-696,2969,220,-14195,-2041,
1583,7,27,2023,12,44,13,5,4886,-232,3327,-340,-14148,-1602,
1584,7,27,2023,12,44,13,15,5165,706,1773,-626,-13897,-1342,
1585,7,27,2023,12,44,13,25,6499,101,3547,-1566,-13094,-651,
1586,7,27,2023,12,44,13,35,4187,-840,3176,-1588,-11937,-541,
1587,7,27,2023,12,44,13,45,3737,301,1193,-1265,-11424,-429,
1588,7,27,2023,12,44,13,55,5137,-621,1769,-1558,-11538,-167,
1589,7,27,2023,12,44,13,65,3926,-991,2318,-1257,-11192,-197,
1590,7,27,2023,12,44,13,75,4464,-1277,1908,-398,-10660,-580,
1591,7,27,2023,12,44,13,85,5078,-737,2350,509,-10391,-812,
1592,7,27,2023,12,44,13,95,4468,-194,3509,878,-9702,-806,
1593,7,27,2023,12,44,13,105,9162,-212,5866,608,-8899,-976,
1594,7,27,2023,12,44,13,115,8458,-1,8125,304,-6568,-1533,
1595,7,27,2023,12,44,13,125,4865,736,7463,-390,-3265,-1908,
1596,7,27,2023,12,44,13,135,3948,775,7149,-1576,-1705,-2743,
1597,7,27,2023,12,44,13,145,3777,-737,6868,-2827,-995,-3790,
1598,7,27,2023,12,44,13,155,4416,-2990,7169,-3073,-518,-4971,
1599,7,27,2023,12,44,13,165,5346,-4682,7924,-1939,-80,-6013,
1600,7,27,2023,12,44,13,175,5828,-5393,8263,-134,702,-6505,
1601,7,27,2023,12,44,13,185,5648,-5715,8111,1512,2128,-6325,
1602,7,27,2023,12,44,13,195,4929,-5651,7703,2695,3834,-5711,
1603,7,27,2023,12,44,13,205,3666,-5118,6916,3260,5457,-4823,
1604,7,27,2023,12,44,13,215,2292,-4112,6046,3037,6723,-3762,
1605,7,27,2023,12,44,13,225,1625,-3291,5170,2036,7634,-2622,
1606,7,27,2023,12,44,13,235,1497,-2996,4531,547,8403,-1415,
1607,7,27,2023,12,44,13,245,1779,-3259,4120,-903,9170,-219,
1608,7,27,2023,12,44,13,255,2371,-3798,3845,-1761,10012,823,
1609,7,27,2023,12,44,13,265,3236,-3678,3768,-1982,10901,1587,
1610,7,27,2023,12,44,13,275,3815,-2945,3642,-2161,11846,2160,
1611,7,27,2023,12,44,13,285,3927,-2246,3474,-2696,12647,2693,
1612,7,27,2023,12,44,13,295,3871,-1905,3312,-3471,13076,3241,
1613,7,27,2023,12,44,13,305,4112,-2078,3280,-4103,13119,3763,
1614,7,27,2023,12,44,13,315,4468,-2331,3609,-4268,12931,4298,
1615,7,27,2023,12,44,13,325,4858,-1894,4454,-4028,12660,4994,
1616,7,27,2023,12,44,13,345,6085,-381,6342,-4045,12585,7010,
1617,7,27,2023,12,44,13,355,6902,-25,6634,-4201,12825,7939,
1618,7,27,2023,12,44,13,365,8218,262,6440,-4134,13064,8557,
1619,7,27,2023,12,44,13,375,9526,266,5948,-3789,13427,8728,
1620,7,27,2023,12,44,13,385,10486,1034,5086,-3109,13833,8497,
1621,7,27,2023,12,44,13,395,11218,2313,3620,-2513,14150,8018,
1622,7,27,2023,12,44,13,405,12298,2874,1406,-2245,14163,7227,
1623,7,27,2023,12,44,13,415,13404,2704,-1354,-1916,13595,5959,
1624,7,27,2023,12,44,13,425,14367,2769,-4253,-1242,12160,4223,
1625,7,27,2023,12,44,13,435,15285,3267,-7224,-535,10041,2350,
1626,7,27,2023,12,44,13,445,15633,3467,-10015,60,7709,789,
1627,7,27,2023,12,44,13,455,14878,3438,-11866,621,5234,-275,
1628,7,27,2023,12,44,13,465,14504,3531,-11883,1065,2459,-756,
1629,7,27,2023,12,44,13,475,14462,3715,-10169,1050,-198,-547,
1630,7,27,2023,12,44,13,485,12367,3006,-7911,782,-2167,-9,
1631,7,27,2023,12,44,13,495,8194,2323,-6467,956,-3973,-200,
1632,7,27,2023,12,44,13,505,1078,3544,-6360,1660,-7322,-2578,
1633,7,27,2023,12,44,13,515,2653,-1010,6184,2424,-10724,-5430,
1634,7,27,2023,12,44,13,525,14410,-2330,14186,2490,-10872,-6566,
1635,7,27,2023,12,44,13,535,22055,-12714,10614,4556,-7308,-5879,
1636,7,27,2023,12,44,13,545,14573,1667,11455,6111,-5742,-3018,
1637,7,27,2023,12,44,13,555,1014,8923,10705,1895,-1760,-1745,
1638,7,27,2023,12,44,13,565,4309,-1226,5115,58,-927,-1953,
1639,7,27,2023,12,44,13,575,1585,79,3763,-248,-2112,-887,
1640,7,27,2023,12,44,13,585,2971,-758,1852,-486,-2483,-978,
1641,7,27,2023,12,44,13,595,1606,-484,3407,-461,-2107,-856,
1642,7,27,2023,12,44,13,605,4311,-2388,3822,-195,-1276,-818,
1643,7,27,2023,12,44,13,615,4163,-1445,3349,71,-728,-903,
1644,7,27,2023,12,44,13,625,1406,-87,3332,57,-958,-952,
1645,7,27,2023,12,44,13,635,2537,-538,3694,4,-1282,-958,
1646,7,27,2023,12,44,13,645,3466,-1088,4123,47,-1143,-742,
1647,7,27,2023,12,44,13,655,2778,-1301,4628,125,-964,-637,
1648,7,27,2023,12,44,13,665,1469,-949,5595,118,-1372,-737,
1649,7,27,2023,12,44,13,675,1898,-483,5385,85,-2262,-735,
1650,7,27,2023,12,44,13,685,2578,-55,4981,-65,-3687,-679,
1651,7,27,2023,12,44,13,695,3153,21,5132,-268,-5358,-669,
1652,7,27,2023,12,44,13,705,1361,-229,5586,-311,-7149,-676,
1653,7,27,2023,12,44,13,715,1683,-896,5157,-228,-9030,-864,
1654,7,27,2023,12,44,13,725,931,-783,4837,-52,-10890,-1105,
1655,7,27,2023,12,44,13,735,1613,-824,5080,360,-12761,-1689,
1656,7,27,2023,12,44,13,745,1949,-609,4460,591,-14059,-1988,
1657,7,27,2023,12,44,13,755,2033,-867,2963,435,-14916,-2211,
1658,7,27,2023,12,44,13,765,5592,107,2664,278,-15908,-2327,
1659,7,27,2023,12,44,13,775,5257,793,2087,-401,-16025,-1774,
1660,7,27,2023,12,44,13,785,7133,286,3548,-1104,-15704,-1428,
1661,7,27,2023,12,44,13,795,5323,-1084,4117,-1607,-14385,-924,
1662,7,27,2023,12,44,13,805,3338,80,2354,-1479,-13109,-598,
1663,7,27,2023,12,44,13,815,5422,-443,2709,-1907,-12276,-127,
1664,7,27,2023,12,44,13,825,4002,-712,1492,-1905,-11150,63,
1665,7,27,2023,12,44,13,835,5041,-701,1056,-1080,-10426,-350,
1666,7,27,2023,12,44,13,845,4942,-447,1413,-56,-9751,-827,
1667,7,27,2023,12,44,13,855,5697,1501,3175,315,-8495,-948,
1668,7,27,2023,12,44,13,865,10753,1253,6578,-436,-7164,-2135,
1669,7,27,2023,12,44,13,875,6581,510,6626,-529,-3825,-3196,
1670,7,27,2023,12,44,13,885,3846,1194,5971,-718,-1440,-3925,
1671,7,27,2023,12,44,13,895,2635,1412,5468,-1508,-806,-4682,
1672,7,27,2023,12,44,13,905,2203,460,5109,-2599,-878,-5377,
1673,7,27,2023,12,44,13,915,2766,-1133,5321,-3184,-1182,-6049,
1674,7,27,2023,12,44,13,925,3825,-2664,5928,-2893,-1389,-6688,
1675,7,27,2023,12,44,13,935,5087,-3786,6971,-1951,-1209,-7137,
1676,7,27,2023,12,44,13,945,6095,-4707,8036,-717,-622,-7082,
1677,7,27,2023,12,44,13,955,6013,-5802,8305,700,446,-6392,
1678,7,27,2023,12,44,13,965,5374,-6152,7835,2379,1727,-5358,
1679,7,27,2023,12,44,13,975,4743,-5461,7279,3763,2966,-4210,
1680,7,27,2023,12,44,13,985,3972,-4527,6685,4194,4182,-2897,
1681,7,27,2023,12,44,13,995,3043,-3661,5987,3730,5337,-1426,
1682,7,27,2023,12,44,14,5,2343,-3381,5135,2769,6372,63,
1683,7,27,2023,12,44,14,15,1951,-3480,4393,1924,7253,1259,
1684,7,27,2023,12,44,14,25,2111,-3440,4055,1516,8011,2057,
1685,7,27,2023,12,44,14,35,2808,-3167,4105,1345,8807,2562,
1686,7,27,2023,12,44,14,45,3722,-2846,4175,1069,9845,2859,
1687,7,27,2023,12,44,14,55,4299,-2746,4123,610,11107,3066,
1688,7,27,2023,12,44,14,65,4304,-2588,3891,112,12272,3225,
1689,7,27,2023,12,44,14,75,4298,-2354,3604,-447,13063,3312,
1690,7,27,2023,12,44,14,85,4634,-2596,3437,-1048,13464,3358,
1691,7,27,2023,12,44,14,95,5127,-3205,3518,-1446,13656,3464,
1692,7,27,2023,12,44,14,105,5524,-3429,3879,-1501,13744,3784,
1693,7,27,2023,12,44,14,115,5763,-2901,4426,-1553,13762,4412,
1694,7,27,2023,12,44,14,125,6073,-2158,4953,-2021,13730,5326,
1695,7,27,2023,12,44,14,135,6283,-1871,5186,-2770,13668,6256,
1696,7,27,2023,12,44,14,145,6796,-1588,5545,-3361,13500,6891,
1697,7,27,2023,12,44,14,155,7867,-966,5990,-3798,13378,7240,
1698,7,27,2023,12,44,14,165,9028,-516,5948,-4240,13487,7419,
1699,7,27,2023,12,44,14,175,9695,-627,5018,-4460,13733,7359,
1700,7,27,2023,12,44,14,185,10195,-872,3522,-4090,13777,6950,
1701,7,27,2023,12,44,14,205,11411,1621,384,-2478,12668,5323,
1702,7,27,2023,12,44,14,215,12188,5981,-1093,-3253,11101,5540,
1703,7,27,2023,12,44,14,225,14125,3178,-4824,-4680,9532,6241,
1704,7,27,2023,12,44,14,235,13690,344,-9335,-2852,7867,5407,
1705,7,27,2023,12,44,14,245,14924,3319,-11397,1142,5353,3151,
1706,7,27,2023,12,44,14,255,16450,7621,-10927,1608,3066,564,
1707,7,27,2023,12,44,14,265,13387,5875,-9653,-1752,1326,-985,
1708,7,27,2023,12,44,14,275,10814,821,-7425,-3292,-677,-1267,
1709,7,27,2023,12,44,14,285,8912,-599,-4737,-1287,-2317,-1280,
1710,7,27,2023,12,44,14,295,5811,1774,-7113,593,-3792,-2178,
1711,7,27,2023,12,44,14,305,2525,5350,-13076,1280,-8436,-4969,
1712,7,27,2023,12,44,14,315,12705,1097,9975,1908,-14942,-6870,
1713,7,27,2023,12,44,14,325,26760,-7752,17542,1928,-11777,-5932,
1714,7,27,2023,12,44,14,335,17872,-10502,8971,7012,-6588,-6356,
1715,7,27,2023,12,44,14,345,7120,3223,12100,6536,-5019,-3151,
1716,7,27,2023,12,44,14,355,2488,6661,10638,2022,-1245,-2102,
1717,7,27,2023,12,44,14,365,3376,28,3693,17,-755,-1319,
1718,7,27,2023,12,44,14,375,2038,-560,1402,-50,-1635,-762,
1719,7,27,2023,12,44,14,385,3545,-122,1867,-269,-1722,-735,
1720,7,27,2023,12,44,14,395,3861,-811,3875,-290,-1093,-593,
1721,7,27,2023,12,44,14,405,3239,-2079,5425,-195,-591,-568,
1722,7,27,2023,12,44,14,415,2173,-1493,4750,-186,-644,-695,
1723,7,27,2023,12,44,14,425,-202,-695,4564,-271,-1275,-732,
1724,7,27,2023,12,44,14,435,3189,-856,4070,-197,-1621,-838,
1725,7,27,2023,12,44,14,445,2733,-1582,4034,-158,-1431,-754,
1726,7,27,2023,12,44,14,455,2689,-982,4357,-81,-1371,-900,
1727,7,27,2023,12,44,14,465,3490,-554,4244,-209,-1874,-996,
1728,7,27,2023,12,44,14,475,2224,-1163,4507,-216,-2696,-1052,
1729,7,27,2023,12,44,14,485,1868,-1082,5086,-195,-3793,-1210,
1730,7,27,2023,12,44,14,495,2177,-918,5334,-341,-5100,-1346,
1731,7,27,2023,12,44,14,505,1681,-1449,5032,-415,-6576,-1500,
1732,7,27,2023,12,44,14,515,1119,-1029,5627,-93,-8526,-1955,
1733,7,27,2023,12,44,14,525,1053,-971,5526,55,-10357,-2278,
1734,7,27,2023,12,44,14,535,1872,-176,4176,447,-12077,-2648,
1735,7,27,2023,12,44,14,545,3001,827,3360,657,-13962,-2811,
1736,7,27,2023,12,44,14,555,2687,492,3321,411,-14982,-2569,
1737,7,27,2023,12,44,14,565,3676,831,2571,103,-15253,-2180,
1738,7,27,2023,12,44,14,575,5435,873,3601,-823,-15273,-1301,
1739,7,27,2023,12,44,14,585,6268,-886,2914,-1436,-15013,-952,
1740,7,27,2023,12,44,14,595,5418,-28,3377,-1531,-13677,-582,
1741,7,27,2023,12,44,14,605,5869,-1025,2970,-2015,-12224,-431,
1742,7,27,2023,12,44,14,615,5174,-919,1177,-2655,-11072,-108,
1743,7,27,2023,12,44,14,625,5966,-748,1332,-3419,-10107,-88,
1744,7,27,2023,12,44,14,635,6427,-1180,2423,-3414,-8947,-900,
1745,7,27,2023,12,44,14,645,5367,-564,3967,-3278,-7266,-1481,
1746,7,27,2023,12,44,14,655,8105,413,6673,-4203,-5473,-2484,
1747,7,27,2023,12,44,14,665,5821,-693,7196,-4359,-3303,-4095,
1748,7,27,2023,12,44,14,675,2632,-1144,5987,-4106,-1284,-5118,
1749,7,27,2023,12,44,14,685,2425,-1664,5636,-3732,-912,-5887,
1750,7,27,2023,12,44,14,695,2495,-2456,5394,-3205,-893,-6270,
1751,7,27,2023,12,44,14,705,2348,-3079,5426,-2425,-803,-6279,
1752,7,27,2023,12,44,14,715,1837,-3756,5634,-1401,-789,-6058,
1753,7,27,2023,12,44,14,725,2138,-4160,6079,-135,-1006,-5746,
1754,7,27,2023,12,44,14,735,3090,-4360,6785,1161,-1135,-5195,
1755,7,27,2023,12,44,14,745,3954,-4921,7448,2358,-779,-4247,
1756,7,27,2023,12,44,14,755,4285,-5280,7600,3628,134,-2968,
1757,7,27,2023,12,44,14,765,4327,-4804,7200,4776,1508,-1611,
1758,7,27,2023,12,44,14,775,3347,-3917,6321,5212,3124,-415,
1759,7,27,2023,12,44,14,785,1961,-2878,5262,4748,4439,424,
1760,7,27,2023,12,44,14,795,1576,-1716,4449,3421,5307,1030,
1761,7,27,2023,12,44,14,805,1962,-1578,3781,1536,6083,1546,
1762,7,27,2023,12,44,14,815,2263,-2261,3219,-18,6947,1829,
1763,7,27,2023,12,44,14,825,2755,-2698,2984,-665,7832,1832,
1764,7,27,2023,12,44,14,835,3386,-2370,2977,-748,8726,1715,
1765,7,27,2023,12,44,14,845,4046,-1779,2905,-1011,9648,1640,
1766,7,27,2023,12,44,14,855,4170,-1819,2624,-1643,10536,1686,
1767,7,27,2023,12,44,14,865,4173,-2004,2535,-2200,11128,1855,
1768,7,27,2023,12,44,14,875,4576,-2019,2699,-2581,11461,2187,
1769,7,27,2023,12,44,14,885,4967,-2214,2877,-2887,11737,2722,
1770,7,27,2023,12,44,14,895,5061,-2575,3179,-2977,11948,3440,
1771,7,27,2023,12,44,14,905,5042,-2386,3714,-2812,12011,4348,
1772,7,27,2023,12,44,14,915,5342,-1573,4466,-2773,11984,5437,
1773,7,27,2023,12,44,14,925,5818,-600,5128,-3121,11965,6615,
1774,7,27,2023,12,44,14,935,6550,144,5458,-3700,11950,7627,
1775,7,27,2023,12,44,14,945,7984,243,5436,-4110,11973,8433,
1776,7,27,2023,12,44,14,955,9386,-1,5030,-3797,12158,9050,
1777,7,27,2023,12,44,14,965,10234,978,4273,-2708,12325,9421,
1778,7,27,2023,12,44,14,975,11026,2652,3026,-1731,12289,9551,
1779,7,27,2023,12,44,14,985,11739,3201,1233,-1259,12018,9340,
1780,7,27,2023,12,44,14,995,12408,2475,-749,-655,11352,8496,
1781,7,27,2023,12,44,15,5,12664,2164,-2971,528,10230,6911,
1782,7,27,2023,12,44,15,15,12471,3140,-5263,1567,8720,4751,
1783,7,27,2023,12,44,15,25,12441,3971,-7265,1495,6982,2534,
1784,7,27,2023,12,44,15,35,12317,3365,-8752,663,5084,821,
1785,7,27,2023,12,44,15,45,11860,2048,-9311,314,2955,-132,
1786,7,27,2023,12,44,15,65,10833,2286,-6586,833,-1249,-238,
1787,7,27,2023,12,44,15,75,8892,2065,-4586,8,-2582,5,
1788,7,27,2023,12,44,15,85,6323,1464,-6965,-889,-3962,-584,
1789,7,27,2023,12,44,15,95,2341,2535,-8074,-263,-8034,-2770,
1790,7,27,2023,12,44,15,105,10901,184,9424,648,-12149,-4564,
1791,7,27,2023,12,44,15,115,23707,-6931,15871,943,-8780,-4748,
1792,7,27,2023,12,44,15,125,13548,-8179,6652,4108,-3352,-4504,
1793,7,27,2023,12,44,15,135,865,-852,9497,4571,-3687,-2383,
1794,7,27,2023,12,44,15,145,2202,4514,9238,2192,-1905,-2098,
1795,7,27,2023,12,44,15,155,4233,683,2460,350,-748,-1876,
1796,7,27,2023,12,44,15,165,4470,939,374,-35,-1433,-967,
1797,7,27,2023,12,44,15,175,3799,-268,2212,-296,-1256,-714,
1798,7,27,2023,12,44,15,185,2876,-914,4604,-270,-619,-470,
1799,7,27,2023,12,44,15,195,3458,-2505,5784,-38,-47,-422,
1800,7,27,2023,12,44,15,205,1257,-2048,5377,22,-206,-588,
1801,7,27,2023,12,44,15,215,1510,-474,5108,4,-950,-781,
1802,7,27,2023,12,44,15,225,2766,-747,4219,-48,-1305,-735,
1803,7,27,2023,12,44,15,235,4020,-1018,4054,-45,-1520,-745,
1804,7,27,2023,12,44,15,245,3344,-148,4698,-100,-1821,-756,
1805,7,27,2023,12,44,15,255,1902,-1061,4903,-324,-2278,-737,
1806,7,27,2023,12,44,15,265,1638,-2127,5296,-353,-3169,-953,
1807,7,27,2023,12,44,15,275,1971,-529,4950,-256,-4452,-1043,
1808,7,27,2023,12,44,15,285,827,-455,6047,-620,-6573,-1071,
1809,7,27,2023,12,44,15,295,1134,-1484,6058,-578,-8712,-1391,
1810,7,27,2023,12,44,15,305,1235,-660,4963,-156,-10908,-1823,
1811,7,27,2023,12,44,15,315,1860,-508,4738,231,-13398,-2452,
1812,7,27,2023,12,44,15,325,2328,-230,4559,666,-15309,-2889,
1813,7,27,2023,12,44,15,335,1286,311,3752,620,-16260,-3005,
1814,7,27,2023,12,44,15,345,3416,-26,3198,6,-16785,-2737,
1815,7,27,2023,12,44,15,355,6277,1579,3246,-645,-16822,-1889,
1816,7,27,2023,12,44,15,365,6317,151,2280,-2148,-15350,-555,
1817,7,27,2023,12,44,15,375,5481,-123,2163,-2122,-14112,-316,
1818,7,27,2023,12,44,15,385,5046,-738,2154,-2543,-12789,107,
1819,7,27,2023,12,44,15,395,4017,-1222,1604,-2757,-11678,180,
1820,7,27,2023,12,44,15,405,6178,-551,1946,-2565,-10506,38,
1821,7,27,2023,12,44,15,415,5235,-193,1497,-2329,-8968,-411,
1822,7,27,2023,12,44,15,425,5120,1929,2253,-2380,-7269,-1168,
1823,7,27,2023,12,44,15,435,10198,-533,5089,-2534,-6241,-3357,
1824,7,27,2023,12,44,15,445,6996,-1222,5678,-1265,-3252,-4530,
1825,7,27,2023,12,44,15,455,4091,-214,5370,-263,-889,-4646,
1826,7,27,2023,12,44,15,465,2242,309,5042,-139,-464,-4434,
1827,7,27,2023,12,44,15,475,1233,166,4901,-540,-1082,-4199,
1828,7,27,2023,12,44,15,485,1538,-664,5281,-969,-2019,-4125,
1829,7,27,2023,12,44,15,495,3053,-2012,6106,-1053,-2765,-4367,
1830,7,27,2023,12,44,15,505,5073,-3545,7328,-595,-2889,-4829,
1831,7,27,2023,12,44,15,515,6995,-4584,8814,378,-2341,-5204,
1832,7,27,2023,12,44,15,525,7621,-5647,9602,1601,-1244,-5199,
1833,7,27,2023,12,44,15,535,6863,-6362,9452,3048,176,-4924,
1834,7,27,2023,12,44,15,545,5820,-5925,8780,4418,1699,-4510,
1835,7,27,2023,12,44,15,555,4726,-5074,8019,5009,3157,-3928,
1836,7,27,2023,12,44,15,565,3580,-4176,7311,4594,4455,-3095,
1837,7,27,2023,12,44,15,575,2700,-3659,6428,3520,5644,-1904,
1838,7,27,2023,12,44,15,585,2277,-3848,5431,2380,6787,-545,
1839,7,27,2023,12,44,15,595,1983,-4089,4650,1674,7834,614,
1840,7,27,2023,12,44,15,605,2059,-3826,4290,1403,8768,1510,
1841,7,27,2023,12,44,15,615,2618,-3178,4318,1113,9704,2234,
1842,7,27,2023,12,44,15,625,3368,-2689,4383,438,10813,2830,
1843,7,27,2023,12,44,15,635,3938,-2557,4329,-506,12046,3276,
1844,7,27,2023,12,44,15,645,3923,-2503,4102,-1374,13151,3560,
1845,7,27,2023,12,44,15,655,4000,-2398,3968,-2042,13884,3677,
1846,7,27,2023,12,44,15,665,4494,-2405,4078,-2604,14302,3708,
1847,7,27,2023,12,44,15,675,5016,-2363,4432,-3059,14588,3831,
1848,7,27,2023,12,44,15,685,5496,-1995,5053,-3450,14790,4208,
1849,7,27,2023,12,44,15,695,6174,-1518,5641,-3905,14958,4807,
1850,7,27,2023,12,44,15,705,6789,-1148,6122,-4390,15118,5520,
1851,7,27,2023,12,44,15,715,7883,-576,6447,-4820,15173,6226,
1852,7,27,2023,12,44,15,725,9927,-312,6198,-5251,15198,6903,
1853,7,27,2023,12,44,15,735,11961,-827,5162,-5366,15414,7384,
1854,7,27,2023,12,44,15,745,12682,-709,3571,-4717,15672,7526,
1855,7,27,2023,12,44,15,755,13119,934,1825,-3770,15494,7408,
1856,7,27,2023,12,44,15,765,14184,3076,44,-3493,14655,7174,
1857,7,27,2023,12,44,15,775,15800,4604,-2213,-4022,13143,6768,
1858,7,27,2023,12,44,15,785,16997,4746,-5474,-4426,11159,5965,
1859,7,27,2023,12,44,15,795,17232,3592,-9332,-3453,8928,4478,
1860,7,27,2023,12,44,15,805,15967,2746,-12221,-772,6442,2139,
1861,7,27,2023,12,44,15,815,14816,3318,-12483,2026,3568,-490,
1862,7,27,2023,12,44,15,825,16050,4252,-10056,2729,783,-2065,
1863,7,27,2023,12,44,15,835,15161,3526,-7966,1127,-847,-1773,
1864,7,27,2023,12,44,15,845,10057,286,-7489,-259,-2152,-501,
1865,7,27,2023,12,44,15,855,5712,1998,-13049,1087,-5856,-926,
1866,7,27,2023,12,44,15,865,4844,4510,-880,2695,-12663,-3274,
1867,7,27,2023,12,44,15,875,16016,2480,19223,1995,-13700,-4641,
1868,7,27,2023,12,44,15,885,19208,-2951,12996,2431,-7079,-6108,
1869,7,27,2023,12,44,15,895,10490,-11192,8998,5763,-5025,-5934,
1870,7,27,2023,12,44,15,905,4896,1729,10600,5011,-5110,-2590,
1871,7,27,2023,12,44,15,925,2239,-245,2051,-206,-1596,-1642,
1872,7,27,2023,12,44,15,935,1572,-1579,1666,-345,-2293,-1256,
1873,7,27,2023,12,44,15,945,3357,-295,2671,-310,-1894,-1110,
1874,7,27,2023,12,44,15,955,3303,-1466,5062,-127,-899,-881,
1875,7,27,2023,12,44,15,965,3314,-2169,4919,30,-202,-755,
1876,7,27,2023,12,44,15,975,2731,-956,4338,64,-577,-1036,
1877,7,27,2023,12,44,15,985,3099,372,4230,-54,-1269,-1174,
1878,7,27,2023,12,44,15,995,2821,-480,4022,-252,-1438,-969,
1879,7,27,2023,12,44,16,5,2375,-1105,4418,-185,-1325,-791,
1880,7,27,2023,12,44,16,15,1882,-1602,4730,-94,-1553,-764,
1881,7,27,2023,12,44,16,25,2002,-1412,5437,-86,-2400,-899,
1882,7,27,2023,12,44,16,35,1963,-867,5243,-175,-3361,-935,
1883,7,27,2023,12,44,16,45,2802,-60,4867,-358,-4708,-1015,
1884,7,27,2023,12,44,16,55,2713,-560,4938,-543,-6504,-1153,
1885,7,27,2023,12,44,16,65,1135,-376,5109,-261,-8441,-1339,
1886,7,27,2023,12,44,16,75,1287,-982,4948,-121,-10339,-1613,
1887,7,27,2023,12,44,16,85,1575,-375,4647,194,-11985,-1807,
1888,7,27,2023,12,44,16,95,2568,-49,4712,422,-13438,-1997,
1889,7,27,2023,12,44,16,105,2052,-352,3721,118,-14298,-1808,
1890,7,27,2023,12,44,16,115,3393,-82,2396,-285,-14805,-1694,
1891,7,27,2023,12,44,16,125,6525,1202,2370,-985,-15314,-1349,
1892,7,27,2023,12,44,16,135,6088,41,2573,-2119,-14976,-913,
1893,7,27,2023,12,44,16,145,6483,-371,3803,-2500,-13761,-671,
1894,7,27,2023,12,44,16,155,5400,-1145,3474,-2785,-12040,-494,
1895,7,27,2023,12,44,16,165,4757,-1366,2282,-3238,-10610,-154,
1896,7,27,2023,12,44,16,175,5282,-1867,1894,-3421,-9355,-270,
1897,7,27,2023,12,44,16,185,5111,-1869,1462,-2683,-8205,-984,
1898,7,27,2023,12,44,16,195,4282,-188,1768,-1708,-7329,-1801,
1899,7,27,2023,12,44,16,205,8224,-125,4488,-1744,-6826,-2860,
1900,7,27,2023,12,44,16,215,7508,-1167,6436,-1254,-5175,-3879,
1901,7,27,2023,12,44,16,225,3439,-284,5559,-738,-2859,-4134,
1902,7,27,2023,12,44,16,235,2135,886,5311,-921,-2510,-4370,
1903,7,27,2023,12,44,16,245,1993,392,5194,-1810,-2829,-4564,
1904,7,27,2023,12,44,16,255,2486,-1295,5298,-2419,-3067,-4884,
1905,7,27,2023,12,44,16,265,3091,-2930,5563,-1974,-3069,-5417,
1906,7,27,2023,12,44,16,275,3752,-3655,6046,-683,-2855,-5952,
1907,7,27,2023,12,44,16,285,4454,-3809,6782,736,-2453,-6193,
1908,7,27,2023,12,44,16,295,4951,-3956,7683,1817,-1891,-5986,
1909,7,27,2023,12,44,16,305,5155,-4559,8158,2578,-1121,-5346,
1910,7,27,2023,12,44,16,315,5218,-5051,8076,3320,-28,-4453,
1911,7,27,2023,12,44,16,325,4768,-5023,7369,4008,1388,-3460,
1912,7,27,2023,12,44,16,335,3417,-4426,6411,4326,2795,-2478,
1913,7,27,2023,12,44,16,345,2257,-3322,5570,3992,3855,-1495,
1914,7,27,2023,12,44,16,355,1999,-2443,4814,2887,4730,-372,
1915,7,27,2023,12,44,16,365,1878,-2573,4025,1461,5711,758,
1916,7,27,2023,12,44,16,375,1759,-2950,3422,513,6738,1563,
1917,7,27,2023,12,44,16,385,1862,-2783,3184,194,7667,1969,
1918,7,27,2023,12,44,16,395,2438,-2168,3381,-46,8504,2183,
1919,7,27,2023,12,44,16,405,3468,-1861,3568,-674,9483,2388,
1920,7,27,2023,12,44,16,415,4070,-2301,3480,-1406,10675,2633,
1921,7,27,2023,12,44,16,425,4133,-2472,3317,-1730,11717,2874,
1922,7,27,2023,12,44,16,435,4277,-1955,3271,-1883,12375,3130,
1923,7,27,2023,12,44,16,445,4696,-1728,3281,-2294,12725,3453,
1924,7,27,2023,12,44,16,455,5057,-2318,3374,-2711,12913,3884,
1925,7,27,2023,12,44,16,465,5222,-2658,3722,-2646,12946,4463,
1926,7,27,2023,12,44,16,475,5436,-1990,4441,-2313,12831,5246,
1927,7,27,2023,12,44,16,485,5988,-747,5189,-2366,12683,6178,
1928,7,27,2023,12,44,16,495,6925,-25,5678,-3009,12619,7003,
1929,7,27,2023,12,44,16,505,8444,-334,5764,-3682,12742,7576,
1930,7,27,2023,12,44,16,515,9842,-919,5314,-3566,13112,7925,
1931,7,27,2023,12,44,16,525,10530,-244,4439,-2607,13407,8111,
1932,7,27,2023,12,44,16,535,11216,956,3168,-1701,13414,8137,
1933,7,27,2023,12,44,16,545,12309,1599,1600,-1262,13151,7936,
1934,7,27,2023,12,44,16,555,13733,2162,-250,-1001,12628,7454,
1935,7,27,2023,12,44,16,565,14237,3180,-2482,-848,11758,6723,
1936,7,27,2023,12,44,16,575,13756,4095,-4911,-947,10283,5689,
1937,7,27,2023,12,44,16,585,13195,3916,-7336,-1099,8313,4076,
1938,7,27,2023,12,44,16,595,13178,3355,-8866,-778,6062,1860,
1939,7,27,2023,12,44,16,605,13472,3055,-9017,-145,3907,-236,
1940,7,27,2023,12,44,16,615,12794,2653,-8475,334,2185,-1415,
1941,7,27,2023,12,44,16,625,11183,2407,-7600,544,635,-1751,
1942,7,27,2023,12,44,16,635,9305,2350,-6312,366,-1005,-1607,
1943,7,27,2023,12,44,16,645,7212,2145,-4682,-85,-2690,-1272,
1944,7,27,2023,12,44,16,655,3945,2683,-6239,-464,-4605,-1359,
1945,7,27,2023,12,44,16,665,-1334,2050,-7986,-498,-8719,-3041,
1946,7,27,2023,12,44,16,675,10900,-3289,9076,402,-13562,-5508,
1947,7,27,2023,12,44,16,685,27208,-15889,16088,3816,-8837,-6433,
1948,7,27,2023,12,44,16,695,12971,-2993,6927,6729,-2965,-4623,
1949,7,27,2023,12,44,16,705,329,9044,12821,3274,-1874,-1380,
1950,7,27,2023,12,44,16,715,3004,-596,7765,831,-30,-2261,
1951,7,27,2023,12,44,16,725,3634,1529,3406,148,-924,-1002,
1952,7,27,2023,12,44,16,735,4349,856,1687,-262,-1604,-653,
1953,7,27,2023,12,44,16,745,820,-1907,2113,-550,-1661,-558,
1954,7,27,2023,12,44,16,755,3024,-1350,3611,-243,-1164,-656,
1955,7,27,2023,12,44,16,765,3184,-2083,4998,31,-304,-815,
1956,7,27,2023,12,44,16,785,1080,-894,4510,-208,-865,-553,
1957,7,27,2023,12,44,16,795,3107,-1374,3854,-145,-1198,-589,
1958,7,27,2023,12,44,16,805,4625,-1228,4035,-127,-1465,-705,
1959,7,27,2023,12,44,16,815,2404,-19,4399,-138,-1629,-707,
1960,7,27,2023,12,44,16,825,956,-857,4700,-191,-2167,-684,
1961,7,27,2023,12,44,16,835,1537,-1950,5369,-150,-3124,-810,
1962,7,27,2023,12,44,16,845,2276,-741,5214,-107,-4298,-875,
1963,7,27,2023,12,44,16,855,1128,-567,6063,-365,-5970,-921,
1964,7,27,2023,12,44,16,865,2106,-1207,5182,-291,-7692,-1186,
1965,7,27,2023,12,44,16,875,2218,-592,4439,-53,-9856,-1571,
1966,7,27,2023,12,44,16,885,1267,-411,4846,63,-12155,-1972,
1967,7,27,2023,12,44,16,895,1619,-518,4239,445,-13760,-2436,
1968,7,27,2023,12,44,16,905,1978,470,4403,645,-15040,-2658,
1969,7,27,2023,12,44,16,915,3585,-525,3083,78,-15713,-2581,
1970,7,27,2023,12,44,16,925,3852,919,3103,-305,-15617,-1949,
1971,7,27,2023,12,44,16,935,5867,205,2670,-1338,-15374,-1360,
1972,7,27,2023,12,44,16,945,6359,-454,1705,-1827,-14777,-992,
1973,7,27,2023,12,44,16,955,7693,-546,2915,-1767,-13535,-805,
1974,7,27,2023,12,44,16,965,6394,-1566,2922,-1960,-11556,-617,
1975,7,27,2023,12,44,16,975,4092,-2601,1971,-2465,-9619,-503,
1976,7,27,2023,12,44,16,985,3235,-2488,1533,-1865,-8516,-1486,
1977,7,27,2023,12,44,16,995,3587,-736,2414,-795,-8016,-2659,
1978,7,27,2023,12,44,17,5,6373,1967,4405,-1263,-7490,-3579,
1979,7,27,2023,12,44,17,15,7961,-329,6749,-2736,-6108,-4223,
1980,7,27,2023,12,44,17,25,4969,-2050,6201,-3020,-3050,-4516,
1981,7,27,2023,12,44,17,35,2847,-2339,5707,-2344,-1470,-5100,
1982,7,27,2023,12,44,17,45,1372,-2075,5393,-1558,-1092,-5531,
1983,7,27,2023,12,44,17,55,1395,-1618,5389,-1105,-1350,-5547,
1984,7,27,2023,12,44,17,65,2517,-1573,5580,-1160,-1555,-5195,
1985,7,27,2023,12,44,17,75,3031,-2337,5723,-1422,-1302,-4718,
1986,7,27,2023,12,44,17,85,3314,-3169,6158,-1225,-1006,-4403,
1987,7,27,2023,12,44,17,95,4231,-3884,7016,-435,-826,-4102,
1988,7,27,2023,12,44,17,105,4673,-4878,7665,872,-437,-3594,
1989,7,27,2023,12,44,17,115,5070,-5034,7928,2575,245,-2888,
1990,7,27,2023,12,44,17,125,5139,-4186,7740,3914,1388,-1938,
1991,7,27,2023,12,44,17,135,4202,-2917,7204,4196,2810,-791,
1992,7,27,2023,12,44,17,145,2981,-2107,6361,3421,4087,400,
1993,7,27,2023,12,44,17,155,2256,-1951,5412,2249,5110,1435,
1994,7,27,2023,12,44,17,165,2052,-2222,4604,1407,5999,2096,
1995,7,27,2023,12,44,17,175,2126,-2299,4219,1103,6911,2332,
1996,7,27,2023,12,44,17,185,2276,-1887,4071,1002,7919,2321,
1997,7,27,2023,12,44,17,195,2556,-1411,3912,664,8943,2236,
1998,7,27,2023,12,44,17,205,3286,-1465,3738,-58,9952,2119,
1999,7,27,2023,12,44,17,215,3839,-2072,3585,-772,10997,2050,
2000,7,27,2023,12,44,17,225,4142,-2295,3488,-1113,11923,2111,
2001,7,27,2023,12,44,17,235,4438,-2049,3485,-1361,12606,2348,
2002,7,27,2023,12,44,17,245,4912,-2113,3585,-1823,13089,2792,
2003,7,27,2023,12,44,17,255,5126,-2471,3775,-2246,13452,3467,
2004,7,27,2023,12,44,17,265,5121,-2302,4123,-2374,13585,4385,
