Packet #, Month, Day, Year, Hour, Minute, Second, MS, ACC X, ACC Y, ACC Z, GYR X, GYR Y, GYR Z
1,7,28,2023,12,52,28,965,2210,-630,3422,-3,-10,-5,
2,7,28,2023,12,52,28,975,2212,-634,3416,-6,-11,-3,
3,7,28,2023,12,52,28,985,2205,-630,3417,-4,-10,-3,
4,7,28,2023,12,52,28,995,2223,-644,3408,-3,-6,-5,
5,7,28,2023,12,52,29,5,2209,-637,3417,-6,-2,-5,
6,7,28,2023,12,52,29,15,2203,-642,3422,0,-6,-1,
7,7,28,2023,12,52,29,25,2208,-635,3424,0,-8,0,
8,7,28,2023,12,52,29,35,2213,-635,3427,-3,-7,-4,
9,7,28,2023,12,52,29,45,2209,-634,3422,-1,-8,1,
10,7,28,2023,12,52,29,55,2214,-636,3418,-5,-5,3,
11,7,28,2023,12,52,29,65,2214,-632,3424,-6,-8,1,
12,7,28,2023,12,52,29,75,2215,-627,3431,-9,-5,0,
13,7,28,2023,12,52,29,85,2212,-651,3412,-6,-4,1,
14,7,28,2023,12,52,29,95,2206,-630,3419,1,-4,-3,
15,7,28,2023,12,52,29,105,2217,-627,3423,-4,-6,-2,
16,7,28,2023,12,52,29,115,2217,-643,3416,-2,-8,2,
17,7,28,2023,12,52,29,125,2222,-630,3421,-1,-7,-4,
18,7,28,2023,12,52,29,135,2220,-629,3412,-3,-9,-2,
19,7,28,2023,12,52,29,145,2218,-633,3415,-8,-4,-4,
20,7,28,2023,12,52,29,155,2219,-636,3422,-4,-5,0,
21,7,28,2023,12,52,29,165,2217,-644,3423,-2,-5,3,
22,7,28,2023,12,52,29,175,2215,-639,3420,-3,-7,1,
23,7,28,2023,12,52,29,185,2213,-632,3415,-3,-7,0,
24,7,28,2023,12,52,29,195,2216,-632,3421,-4,-6,3,
25,7,28,2023,12,52,29,205,2215,-629,3416,-6,-9,2,
26,7,28,2023,12,52,29,215,2217,-627,3415,-8,-8,0,
27,7,28,2023,12,52,29,225,2216,-635,3420,-6,-5,-2,
28,7,28,2023,12,52,29,235,2228,-634,3412,-5,-4,0,
29,7,28,2023,12,52,29,245,2222,-629,3419,-7,-2,5,
30,7,28,2023,12,52,29,255,2216,-630,3418,-6,1,1,
31,7,28,2023,12,52,29,265,2223,-630,3414,-6,0,1,
32,7,28,2023,12,52,29,275,2221,-637,3424,-4,5,2,
33,7,28,2023,12,52,29,285,2215,-633,3417,-1,2,1,
34,7,28,2023,12,52,29,295,2219,-626,3411,-1,2,1,
35,7,28,2023,12,52,29,305,2219,-635,3415,0,4,1,
36,7,28,2023,12,52,29,315,2222,-638,3420,-3,7,6,
37,7,28,2023,12,52,29,325,2219,-638,3420,-4,6,9,
38,7,28,2023,12,52,29,335,2214,-636,3422,-4,7,5,
39,7,28,2023,12,52,29,345,2212,-636,3423,1,6,4,
40,7,28,2023,12,52,29,355,2218,-628,3415,-4,3,2,
41,7,28,2023,12,52,29,365,2226,-631,3411,-5,7,4,
42,7,28,2023,12,52,29,375,2221,-635,3411,-2,9,4,
43,7,28,2023,12,52,29,385,2222,-630,3408,0,12,6,
44,7,28,2023,12,52,29,395,2213,-621,3422,0,16,7,
45,7,28,2023,12,52,29,405,2214,-628,3421,-1,18,9,
46,7,28,2023,12,52,29,415,2215,-631,3423,-4,20,10,
47,7,28,2023,12,52,29,425,2226,-624,3421,-3,19,10,
48,7,28,2023,12,52,29,435,2200,-630,3416,-6,17,14,
49,7,28,2023,12,52,29,445,2209,-647,3420,-6,16,14,
50,7,28,2023,12,52,29,455,2211,-651,3423,-6,15,9,
51,7,28,2023,12,52,29,465,2219,-637,3420,-2,12,8,
52,7,28,2023,12,52,29,475,2212,-637,3427,-3,13,9,
53,7,28,2023,12,52,29,485,2208,-641,3422,-4,10,9,
54,7,28,2023,12,52,29,495,2211,-644,3421,-3,11,0,
55,7,28,2023,12,52,29,505,2223,-640,3422,0,9,1,
56,7,28,2023,12,52,29,515,2219,-636,3414,0,10,6,
57,7,28,2023,12,52,29,525,2214,-644,3414,1,15,1,
58,7,28,2023,12,52,29,535,2220,-611,3420,-1,21,0,
59,7,28,2023,12,52,29,545,2210,-618,3417,-2,21,10,
60,7,28,2023,12,52,29,555,2206,-640,3420,-2,21,14,
61,7,28,2023,12,52,29,565,2213,-641,3426,-5,18,11,
62,7,28,2023,12,52,29,575,2210,-661,3423,-9,16,9,
63,7,28,2023,12,52,29,585,2215,-623,3427,-3,9,7,
64,7,28,2023,12,52,29,595,2201,-658,3420,-4,7,9,
65,7,28,2023,12,52,29,605,2225,-623,3428,0,7,1,
66,7,28,2023,12,52,29,615,2216,-626,3429,-1,5,5,
67,7,28,2023,12,52,29,625,2198,-658,3423,-3,6,6,
68,7,28,2023,12,52,29,635,2205,-646,3418,-2,4,1,
69,7,28,2023,12,52,29,645,2216,-632,3424,-1,1,2,
70,7,28,2023,12,52,29,655,2205,-646,3419,-2,0,0,
71,7,28,2023,12,52,29,665,2201,-649,3415,0,1,-1,
72,7,28,2023,12,52,29,675,2208,-645,3417,1,1,-3,
73,7,28,2023,12,52,29,685,2214,-637,3414,4,-3,-6,
74,7,28,2023,12,52,29,695,2211,-633,3410,5,-3,-7,
75,7,28,2023,12,52,29,705,2215,-636,3421,6,-2,-8,
76,7,28,2023,12,52,29,715,2209,-637,3426,5,-4,-11,
77,7,28,2023,12,52,29,725,2211,-634,3418,7,-4,-10,
78,7,28,2023,12,52,29,735,2211,-632,3418,6,0,-8,
79,7,28,2023,12,52,29,745,2205,-627,3418,6,-1,-9,
80,7,28,2023,12,52,29,755,2208,-631,3425,2,-1,-7,
81,7,28,2023,12,52,29,765,2205,-632,3427,-2,-4,-6,
82,7,28,2023,12,52,29,775,2210,-636,3411,2,-5,-5,
83,7,28,2023,12,52,29,785,2209,-643,3412,0,-8,-7,
84,7,28,2023,12,52,29,795,2208,-636,3420,1,-8,-8,
85,7,28,2023,12,52,29,805,2208,-625,3415,0,-4,-10,
86,7,28,2023,12,52,29,825,2223,-624,3413,-1,-4,-9,
87,7,28,2023,12,52,29,835,2222,-614,3410,3,1,-4,
88,7,28,2023,12,52,29,845,2221,-602,3415,-3,10,-5,
89,7,28,2023,12,52,29,855,2224,-600,3407,-10,13,5,
90,7,28,2023,12,52,29,865,2230,-576,3412,-16,21,9,
91,7,28,2023,12,52,29,875,2234,-599,3412,-28,24,28,
92,7,28,2023,12,52,29,885,2226,-607,3417,-39,29,45,
93,7,28,2023,12,52,29,895,2215,-644,3420,-43,33,51,
94,7,28,2023,12,52,29,905,2205,-676,3398,-34,36,46,
95,7,28,2023,12,52,29,915,2223,-647,3396,-26,44,34,
96,7,28,2023,12,52,29,925,2201,-643,3409,-22,58,33,
97,7,28,2023,12,52,29,935,2221,-663,3428,-18,64,25,
98,7,28,2023,12,52,29,945,2200,-638,3452,-13,49,16,
99,7,28,2023,12,52,29,955,2201,-646,3430,-15,40,20,
100,7,28,2023,12,52,29,965,2215,-643,3426,-18,34,19,
101,7,28,2023,12,52,29,975,2205,-637,3420,-16,30,19,
102,7,28,2023,12,52,29,985,2198,-683,3424,-15,30,20,
103,7,28,2023,12,52,29,995,2190,-662,3430,-4,33,11,
104,7,28,2023,12,52,30,5,2190,-670,3427,3,29,4,
105,7,28,2023,12,52,30,15,2192,-679,3432,8,21,-4,
106,7,28,2023,12,52,30,25,2186,-671,3443,14,9,-12,
107,7,28,2023,12,52,30,35,2184,-658,3463,17,-7,-20,
108,7,28,2023,12,52,30,45,2192,-644,3462,8,-21,-22,
109,7,28,2023,12,52,30,55,2207,-625,3471,1,-47,-22,
110,7,28,2023,12,52,30,65,2201,-665,3454,-5,-72,-21,
111,7,28,2023,12,52,30,75,2208,-638,3445,-5,-88,-25,
112,7,28,2023,12,52,30,85,2213,-654,3439,-4,-99,-26,
113,7,28,2023,12,52,30,95,2211,-667,3437,-7,-106,-27,
114,7,28,2023,12,52,30,105,2211,-657,3440,-3,-117,-33,
115,7,28,2023,12,52,30,115,2209,-626,3445,-1,-130,-44,
116,7,28,2023,12,52,30,125,2219,-660,3433,-4,-138,-49,
117,7,28,2023,12,52,30,135,2219,-592,3406,-6,-147,-47,
118,7,28,2023,12,52,30,145,2262,-599,3375,-17,-136,-40,
119,7,28,2023,12,52,30,155,2211,-633,3402,-17,-124,-34,
120,7,28,2023,12,52,30,165,2251,-584,3391,-39,-110,-30,
121,7,28,2023,12,52,30,175,2273,-635,3347,-48,-92,-23,
122,7,28,2023,12,52,30,185,2238,-621,3356,-23,-71,-20,
123,7,28,2023,12,52,30,195,2255,-624,3361,-23,-45,-12,
124,7,28,2023,12,52,30,205,2239,-644,3362,-23,-18,-2,
125,7,28,2023,12,52,30,215,2246,-641,3381,-6,-1,-2,
126,7,28,2023,12,52,30,225,2231,-620,3405,-2,7,1,
127,7,28,2023,12,52,30,235,2227,-659,3409,-5,8,4,
128,7,28,2023,12,52,30,245,2237,-649,3425,3,7,-1,
129,7,28,2023,12,52,30,255,2243,-622,3418,1,-1,-5,
130,7,28,2023,12,52,30,265,2229,-620,3402,-9,-5,4,
131,7,28,2023,12,52,30,275,2222,-689,3403,-2,-6,5,
132,7,28,2023,12,52,30,285,2235,-663,3419,10,-12,-12,
133,7,28,2023,12,52,30,295,2232,-642,3438,10,-20,-19,
134,7,28,2023,12,52,30,305,2230,-656,3413,4,-35,-24,
135,7,28,2023,12,52,30,315,2229,-641,3414,1,-41,-35,
136,7,28,2023,12,52,30,325,2257,-624,3380,-8,-43,-37,
137,7,28,2023,12,52,30,335,2249,-632,3381,0,-36,-28,
138,7,28,2023,12,52,30,345,2273,-593,3369,5,-23,-26,
139,7,28,2023,12,52,30,355,2259,-595,3360,1,-8,-13,
140,7,28,2023,12,52,30,365,2254,-616,3362,7,14,-1,
141,7,28,2023,12,52,30,375,2259,-610,3366,13,33,2,
142,7,28,2023,12,52,30,385,2253,-622,3375,9,47,10,
143,7,28,2023,12,52,30,395,2241,-660,3384,12,55,16,
144,7,28,2023,12,52,30,405,2241,-643,3397,18,66,11,
145,7,28,2023,12,52,30,415,2242,-651,3393,22,72,10,
146,7,28,2023,12,52,30,425,2232,-668,3403,27,72,2,
147,7,28,2023,12,52,30,435,2241,-619,3421,29,71,-4,
148,7,28,2023,12,52,30,445,2238,-622,3435,30,63,-2,
149,7,28,2023,12,52,30,455,2222,-630,3440,25,53,-3,
150,7,28,2023,12,52,30,465,2237,-641,3438,18,35,-3,
151,7,28,2023,12,52,30,475,2221,-622,3433,14,18,-1,
152,7,28,2023,12,52,30,485,2237,-644,3426,12,3,1,
153,7,28,2023,12,52,30,495,2233,-642,3413,11,-2,-6,
154,7,28,2023,12,52,30,505,2235,-633,3409,14,-9,-8,
155,7,28,2023,12,52,30,515,2240,-630,3414,12,-8,-13,
156,7,28,2023,12,52,30,525,2227,-622,3409,10,-6,-11,
157,7,28,2023,12,52,30,535,2240,-630,3407,6,-10,-9,
158,7,28,2023,12,52,30,545,2240,-632,3404,8,-14,-16,
159,7,28,2023,12,52,30,555,2232,-633,3407,13,-16,-15,
160,7,28,2023,12,52,30,565,2238,-623,3408,13,-20,-21,
161,7,28,2023,12,52,30,575,2241,-618,3402,11,-16,-19,
162,7,28,2023,12,52,30,585,2235,-636,3402,13,-11,-18,
163,7,28,2023,12,52,30,595,2235,-628,3406,11,-11,-25,
164,7,28,2023,12,52,30,605,2241,-607,3417,9,-12,-23,
165,7,28,2023,12,52,30,615,2241,-611,3406,1,-17,-18,
166,7,28,2023,12,52,30,625,2219,-654,3413,1,-22,-12,
167,7,28,2023,12,52,30,635,2215,-648,3421,11,-28,-19,
168,7,28,2023,12,52,30,645,2232,-633,3417,17,-32,-28,
169,7,28,2023,12,52,30,655,2237,-633,3409,19,-37,-32,
170,7,28,2023,12,52,30,665,2236,-621,3418,16,-42,-34,
171,7,28,2023,12,52,30,685,2232,-624,3433,15,-58,-51,
172,7,28,2023,12,52,30,695,2239,-616,3434,10,-75,-51,
173,7,28,2023,12,52,30,705,2239,-630,3429,8,-92,-52,
174,7,28,2023,12,52,30,715,2243,-634,3435,9,-108,-58,
175,7,28,2023,12,52,30,725,2246,-636,3436,5,-127,-68,
176,7,28,2023,12,52,30,735,2267,-629,3413,9,-139,-81,
177,7,28,2023,12,52,30,745,2265,-595,3407,5,-151,-84,
178,7,28,2023,12,52,30,755,2266,-589,3383,-13,-151,-78,
179,7,28,2023,12,52,30,765,2265,-621,3375,2,-151,-77,
180,7,28,2023,12,52,30,775,2302,-585,3371,1,-145,-71,
181,7,28,2023,12,52,30,785,2271,-602,3359,0,-131,-63,
182,7,28,2023,12,52,30,795,2276,-611,3360,3,-116,-57,
183,7,28,2023,12,52,30,805,2294,-581,3376,9,-103,-61,
184,7,28,2023,12,52,30,815,2289,-587,3379,-2,-97,-52,
185,7,28,2023,12,52,30,825,2274,-601,3368,-5,-93,-40,
186,7,28,2023,12,52,30,835,2317,-555,3362,-2,-82,-40,
187,7,28,2023,12,52,30,845,2281,-610,3378,-10,-79,-30,
188,7,28,2023,12,52,30,855,2285,-625,3376,-8,-77,-23,
189,7,28,2023,12,52,30,865,2304,-584,3370,-9,-70,-29,
190,7,28,2023,12,52,30,875,2290,-621,3364,-12,-69,-23,
191,7,28,2023,12,52,30,885,2286,-622,3369,-1,-68,-27,
192,7,28,2023,12,52,30,895,2283,-609,3366,-3,-61,-28,
193,7,28,2023,12,52,30,905,2297,-587,3362,-3,-51,-30,
194,7,28,2023,12,52,30,915,2313,-586,3347,-6,-42,-27,
195,7,28,2023,12,52,30,925,2299,-604,3362,-3,-32,-22,
196,7,28,2023,12,52,30,935,2303,-593,3377,-9,-22,-17,
197,7,28,2023,12,52,30,945,2299,-612,3365,-11,-16,-12,
198,7,28,2023,12,52,30,955,2299,-599,3372,-9,-10,-11,
199,7,28,2023,12,52,30,965,2303,-600,3372,-10,-8,-11,
200,7,28,2023,12,52,30,975,2303,-594,3377,-13,-12,-10,
201,7,28,2023,12,52,30,985,2299,-589,3386,-14,-17,-8,
202,7,28,2023,12,52,30,995,2288,-598,3388,-22,-19,-1,
203,7,28,2023,12,52,31,5,2291,-634,3373,-27,-23,-3,
204,7,28,2023,12,52,31,15,2298,-592,3379,-16,-24,-14,
205,7,28,2023,12,52,31,25,2282,-624,3382,-24,-25,-13,
206,7,28,2023,12,52,31,35,2302,-616,3370,-27,-28,-17,
207,7,28,2023,12,52,31,45,2300,-583,3384,-12,-38,-25,
208,7,28,2023,12,52,31,55,2303,-587,3360,-33,-36,-9,
209,7,28,2023,12,52,31,65,2310,-575,3362,-31,-26,-4,
210,7,28,2023,12,52,31,75,2304,-578,3343,-29,-17,5,
211,7,28,2023,12,52,31,85,2287,-648,3330,-34,1,16,
212,7,28,2023,12,52,31,95,2303,-595,3362,-23,16,11,
213,7,28,2023,12,52,31,105,2315,-595,3360,-22,23,12,
214,7,28,2023,12,52,31,115,2291,-618,3363,-30,23,17,
215,7,28,2023,12,52,31,125,2298,-622,3379,-25,18,12,
216,7,28,2023,12,52,31,135,2305,-591,3382,-24,19,10,
217,7,28,2023,12,52,31,145,2290,-586,3346,-33,16,18,
218,7,28,2023,12,52,31,155,2293,-638,3349,-29,17,18,
219,7,28,2023,12,52,31,165,2298,-562,3372,-30,28,20,
220,7,28,2023,12,52,31,175,2298,-564,3356,-44,32,32,
221,7,28,2023,12,52,31,185,2289,-637,3376,-42,33,40,
222,7,28,2023,12,52,31,195,2292,-595,3400,-41,28,43,
223,7,28,2023,12,52,31,205,2300,-594,3375,-51,20,49,
224,7,28,2023,12,52,31,215,2275,-657,3381,-51,10,52,
225,7,28,2023,12,52,31,225,2291,-640,3369,-46,8,44,
226,7,28,2023,12,52,31,235,2291,-599,3345,-45,9,38,
227,7,28,2023,12,52,31,245,2289,-613,3359,-41,17,31,
228,7,28,2023,12,52,31,255,2302,-649,3326,-38,27,42,
229,7,28,2023,12,52,31,265,2293,-676,3340,-28,44,35,
230,7,28,2023,12,52,31,275,2283,-633,3335,-15,60,18,
231,7,28,2023,12,52,31,285,2323,-608,3340,-11,83,16,
232,7,28,2023,12,52,31,295,2293,-608,3358,-9,94,30,
233,7,28,2023,12,52,31,305,2300,-651,3366,-7,103,25,
234,7,28,2023,12,52,31,315,2296,-619,3391,-4,105,21,
235,7,28,2023,12,52,31,325,2284,-616,3393,-10,97,31,
236,7,28,2023,12,52,31,335,2284,-620,3409,-9,89,27,
237,7,28,2023,12,52,31,345,2265,-614,3423,-11,77,29,
238,7,28,2023,12,52,31,355,2269,-655,3406,-18,56,33,
239,7,28,2023,12,52,31,365,2266,-620,3418,-18,39,29,
240,7,28,2023,12,52,31,375,2282,-597,3405,-24,24,28,
241,7,28,2023,12,52,31,385,2260,-640,3405,-34,11,33,
242,7,28,2023,12,52,31,395,2272,-676,3382,-32,-8,32,
243,7,28,2023,12,52,31,405,2286,-621,3381,-21,-14,22,
244,7,28,2023,12,52,31,415,2281,-630,3380,-20,-14,22,
245,7,28,2023,12,52,31,425,2288,-641,3362,-21,-10,23,
246,7,28,2023,12,52,31,435,2294,-626,3351,-19,-2,25,
247,7,28,2023,12,52,31,445,2294,-649,3340,-12,15,27,
248,7,28,2023,12,52,31,455,2283,-650,3330,-2,35,20,
249,7,28,2023,12,52,31,465,2280,-652,3336,13,55,16,
250,7,28,2023,12,52,31,475,2287,-641,3344,25,76,12,
251,7,28,2023,12,52,31,485,2275,-644,3362,26,98,13,
252,7,28,2023,12,52,31,495,2283,-631,3369,24,110,17,
253,7,28,2023,12,52,31,505,2278,-631,3382,37,122,4,
254,7,28,2023,12,52,31,515,2243,-647,3405,34,125,6,
255,7,28,2023,12,52,31,525,2280,-613,3415,29,117,8,
256,7,28,2023,12,52,31,545,2238,-645,3410,12,79,15,
257,7,28,2023,12,52,31,555,2256,-634,3424,10,62,13,
258,7,28,2023,12,52,31,565,2267,-614,3414,0,44,14,
259,7,28,2023,12,52,31,575,2248,-630,3399,-11,31,19,
260,7,28,2023,12,52,31,585,2264,-644,3384,-9,29,18,
261,7,28,2023,12,52,31,595,2263,-631,3384,-6,30,17,
262,7,28,2023,12,52,31,605,2269,-639,3375,-5,35,16,
263,7,28,2023,12,52,31,615,2271,-613,3374,0,46,17,
264,7,28,2023,12,52,31,625,2273,-646,3367,-2,59,18,
265,7,28,2023,12,52,31,635,2255,-633,3363,6,68,19,
266,7,28,2023,12,52,31,645,2276,-640,3374,18,90,13,
267,7,28,2023,12,52,31,655,2259,-603,3379,17,104,19,
268,7,28,2023,12,52,31,665,2254,-660,3392,23,111,27,
269,7,28,2023,12,52,31,675,2264,-597,3394,19,112,25,
270,7,28,2023,12,52,31,685,2240,-643,3411,21,111,29,
271,7,28,2023,12,52,31,695,2245,-610,3429,17,101,27,
272,7,28,2023,12,52,31,705,2239,-657,3423,8,89,30,
273,7,28,2023,12,52,31,715,2238,-621,3435,8,77,29,
274,7,28,2023,12,52,31,725,2232,-627,3416,3,62,32,
275,7,28,2023,12,52,31,735,2239,-633,3425,0,52,29,
276,7,28,2023,12,52,31,745,2234,-628,3415,-5,45,33,
277,7,28,2023,12,52,31,755,2238,-654,3410,-8,40,27,
278,7,28,2023,12,52,31,765,2237,-630,3411,-3,37,23,
279,7,28,2023,12,52,31,775,2254,-637,3399,0,36,27,
280,7,28,2023,12,52,31,785,2229,-622,3399,-4,40,31,
281,7,28,2023,12,52,31,795,2247,-659,3371,2,49,27,
282,7,28,2023,12,52,31,805,2212,-640,3400,14,64,22,
283,7,28,2023,12,52,31,815,2215,-656,3407,15,69,22,
284,7,28,2023,12,52,31,825,2221,-658,3405,17,68,11,
285,7,28,2023,12,52,31,835,2217,-634,3429,24,66,6,
286,7,28,2023,12,52,31,845,2238,-631,3417,20,57,7,
287,7,28,2023,12,52,31,855,2215,-623,3436,15,50,7,
288,7,28,2023,12,52,31,865,2238,-636,3425,13,48,3,
289,7,28,2023,12,52,31,875,2230,-608,3425,4,39,3,
290,7,28,2023,12,52,31,885,2227,-626,3403,0,29,9,
291,7,28,2023,12,52,31,895,2232,-643,3409,-5,29,13,
292,7,28,2023,12,52,31,905,2217,-630,3415,-1,29,14,
293,7,28,2023,12,52,31,915,2223,-651,3401,3,27,12,
294,7,28,2023,12,52,31,925,2223,-647,3410,4,31,2,
295,7,28,2023,12,52,31,935,2219,-629,3411,5,31,0,
296,7,28,2023,12,52,31,945,2213,-636,3413,6,27,3,
297,7,28,2023,12,52,31,955,2226,-642,3419,4,25,0,
298,7,28,2023,12,52,31,965,2223,-628,3415,2,26,-7,
299,7,28,2023,12,52,31,975,2220,-618,3427,0,21,-7,
300,7,28,2023,12,52,31,985,2220,-631,3416,-2,18,1,
301,7,28,2023,12,52,31,995,2218,-637,3417,-2,14,6,
302,7,28,2023,12,52,32,5,2219,-624,3416,-1,10,7,
303,7,28,2023,12,52,32,15,2211,-622,3425,-6,12,6,
304,7,28,2023,12,52,32,25,2211,-642,3436,-10,6,7,
305,7,28,2023,12,52,32,35,2224,-637,3427,-8,-1,6,
306,7,28,2023,12,52,32,45,2215,-644,3420,-9,-5,1,
307,7,28,2023,12,52,32,55,2223,-639,3417,-3,-7,-3,
308,7,28,2023,12,52,32,65,2214,-643,3416,-2,-8,-7,
309,7,28,2023,12,52,32,75,2227,-633,3418,0,-12,-10,
310,7,28,2023,12,52,32,85,2225,-631,3425,2,-14,-14,
311,7,28,2023,12,52,32,95,2229,-625,3419,1,-16,-15,
312,7,28,2023,12,52,32,105,2225,-617,3419,-2,-15,-12,
313,7,28,2023,12,52,32,115,2237,-625,3408,-4,-12,-7,
314,7,28,2023,12,52,32,125,2231,-621,3407,-5,-11,-4,
315,7,28,2023,12,52,32,135,2242,-632,3408,-3,-10,1,
316,7,28,2023,12,52,32,145,2223,-624,3407,-2,-2,-3,
317,7,28,2023,12,52,32,155,2220,-641,3421,-1,-2,-1,
318,7,28,2023,12,52,32,165,2223,-638,3413,-1,-1,-3,
319,7,28,2023,12,52,32,175,2219,-640,3423,-1,-6,-4,
320,7,28,2023,12,52,32,185,2230,-641,3415,-2,-12,-3,
321,7,28,2023,12,52,32,195,2230,-621,3416,-2,-11,-5,
322,7,28,2023,12,52,32,205,2228,-625,3405,-4,-12,-3,
323,7,28,2023,12,52,32,215,2235,-630,3397,-4,-11,1,
324,7,28,2023,12,52,32,225,2238,-622,3400,-1,-6,1,
325,7,28,2023,12,52,32,235,2227,-625,3406,-3,2,2,
326,7,28,2023,12,52,32,245,2230,-631,3415,-5,4,4,
327,7,28,2023,12,52,32,255,2232,-628,3419,-4,4,8,
328,7,28,2023,12,52,32,265,2221,-624,3416,-6,-2,7,
329,7,28,2023,12,52,32,275,2222,-627,3416,-7,-4,6,
330,7,28,2023,12,52,32,285,2224,-627,3414,-6,-9,9,
331,7,28,2023,12,52,32,295,2232,-626,3409,-9,-9,7,
332,7,28,2023,12,52,32,305,2232,-628,3404,-11,-7,4,
333,7,28,2023,12,52,32,315,2232,-626,3411,-7,-2,2,
334,7,28,2023,12,52,32,325,2227,-632,3409,-10,2,5,
335,7,28,2023,12,52,32,335,2234,-634,3402,-13,0,4,
336,7,28,2023,12,52,32,345,2225,-642,3406,-9,0,4,
337,7,28,2023,12,52,32,355,2221,-633,3412,-7,4,5,
338,7,28,2023,12,52,32,365,2228,-636,3412,-5,6,3,
339,7,28,2023,12,52,32,375,2235,-628,3406,-5,8,3,
340,7,28,2023,12,52,32,385,2228,-634,3412,-3,7,5,
341,7,28,2023,12,52,32,405,2223,-634,3410,-7,8,-2,
342,7,28,2023,12,52,32,415,2222,-634,3412,-9,8,4,
343,7,28,2023,12,52,32,425,2228,-633,3401,-7,10,6,
344,7,28,2023,12,52,32,435,2226,-639,3410,-8,8,8,
345,7,28,2023,12,52,32,445,2226,-640,3407,-7,5,4,
346,7,28,2023,12,52,32,455,2226,-632,3417,-5,4,4,
347,7,28,2023,12,52,32,465,2230,-636,3427,-2,-2,4,
348,7,28,2023,12,52,32,475,2227,-626,3418,-7,-9,2,
349,7,28,2023,12,52,32,485,2228,-626,3416,-11,-12,-1,
350,7,28,2023,12,52,32,495,2226,-633,3418,-13,-12,3,
351,7,28,2023,12,52,32,505,2229,-628,3417,-13,-12,0,
352,7,28,2023,12,52,32,515,2232,-626,3408,-16,-15,1,
353,7,28,2023,12,52,32,525,2239,-626,3403,-22,-17,8,
354,7,28,2023,12,52,32,535,2229,-647,3397,-18,-13,8,
355,7,28,2023,12,52,32,545,2230,-628,3405,-12,-7,5,
356,7,28,2023,12,52,32,555,2234,-633,3404,-11,-3,11,
357,7,28,2023,12,52,32,565,2232,-645,3400,-6,0,9,
358,7,28,2023,12,52,32,575,2225,-642,3399,-3,6,6,
359,7,28,2023,12,52,32,585,2229,-638,3405,0,10,2,
360,7,28,2023,12,52,32,595,2232,-639,3412,-1,16,0,
361,7,28,2023,12,52,32,605,2223,-631,3405,6,15,-1,
362,7,28,2023,12,52,32,615,2227,-626,3410,5,18,0,
363,7,28,2023,12,52,32,625,2221,-635,3414,4,13,0,
364,7,28,2023,12,52,32,635,2224,-637,3418,4,7,-3,
365,7,28,2023,12,52,32,645,2224,-635,3421,-1,2,-1,
366,7,28,2023,12,52,32,655,2230,-633,3414,-4,-4,-4,
367,7,28,2023,12,52,32,665,2235,-629,3412,-4,-5,-4,
368,7,28,2023,12,52,32,675,2228,-639,3418,-8,-11,1,
369,7,28,2023,12,52,32,685,2239,-636,3409,-9,-11,1,
370,7,28,2023,12,52,32,695,2237,-636,3398,-7,-14,-1,
371,7,28,2023,12,52,32,705,2230,-641,3406,-5,-11,0,
372,7,28,2023,12,52,32,715,2233,-643,3402,-6,-9,-2,
373,7,28,2023,12,52,32,725,2226,-634,3398,-3,-8,-5,
374,7,28,2023,12,52,32,735,2234,-632,3411,-2,-6,-4,
375,7,28,2023,12,52,32,745,2242,-625,3403,-1,0,-2,
376,7,28,2023,12,52,32,755,2227,-628,3404,-2,6,-3,
377,7,28,2023,12,52,32,765,2234,-630,3417,-8,3,-2,
378,7,28,2023,12,52,32,775,2229,-625,3414,-4,0,-1,
379,7,28,2023,12,52,32,785,2221,-640,3410,-9,-3,0,
380,7,28,2023,12,52,32,795,2225,-643,3412,-8,-7,1,
381,7,28,2023,12,52,32,805,2244,-645,3419,-5,-11,-3,
382,7,28,2023,12,52,32,815,2225,-605,3407,-8,-11,-6,
383,7,28,2023,12,52,32,825,2247,-635,3418,-16,-16,2,
384,7,28,2023,12,52,32,835,2232,-622,3404,-15,-14,1,
385,7,28,2023,12,52,32,845,2232,-628,3405,-11,-10,5,
386,7,28,2023,12,52,32,855,2240,-638,3402,-10,-5,6,
387,7,28,2023,12,52,32,865,2229,-634,3401,-9,0,6,
388,7,28,2023,12,52,32,875,2237,-641,3403,-6,3,6,
389,7,28,2023,12,52,32,885,2230,-643,3413,-5,4,5,
390,7,28,2023,12,52,32,895,2226,-641,3408,-5,1,1,
391,7,28,2023,12,52,32,905,2235,-627,3402,-4,-2,0,
392,7,28,2023,12,52,32,915,2234,-630,3402,-3,0,1,
393,7,28,2023,12,52,32,925,2230,-635,3413,-6,2,5,
394,7,28,2023,12,52,32,935,2239,-640,3415,-4,0,3,
395,7,28,2023,12,52,32,945,2232,-637,3406,-3,0,1,
396,7,28,2023,12,52,32,955,2241,-639,3411,-6,-3,3,
397,7,28,2023,12,52,32,965,2237,-642,3405,-6,2,4,
398,7,28,2023,12,52,32,975,2238,-639,3400,-5,1,1,
399,7,28,2023,12,52,32,985,2232,-632,3407,-2,0,1,
400,7,28,2023,12,52,32,995,2234,-636,3411,-3,1,1,
401,7,28,2023,12,52,33,5,2234,-638,3410,-4,-1,3,
402,7,28,2023,12,52,33,15,2236,-635,3402,-3,-4,0,
403,7,28,2023,12,52,33,25,2243,-636,3405,-4,-4,-4,
404,7,28,2023,12,52,33,35,2246,-642,3401,-5,-4,1,
405,7,28,2023,12,52,33,45,2239,-639,3398,-4,-4,2,
406,7,28,2023,12,52,33,55,2243,-630,3405,-6,-1,2,
407,7,28,2023,12,52,33,65,2237,-637,3405,-4,0,-1,
408,7,28,2023,12,52,33,75,2240,-640,3403,-4,1,1,
409,7,28,2023,12,52,33,85,2239,-643,3403,-6,4,4,
410,7,28,2023,12,52,33,95,2236,-639,3400,-5,5,-1,
411,7,28,2023,12,52,33,105,2236,-641,3403,-4,4,1,
412,7,28,2023,12,52,33,115,2240,-635,3409,0,6,1,
413,7,28,2023,12,52,33,125,2233,-642,3413,-2,5,1,
414,7,28,2023,12,52,33,135,2234,-641,3412,-2,-2,-3,
415,7,28,2023,12,52,33,145,2236,-641,3412,-3,-4,-3,
416,7,28,2023,12,52,33,155,2230,-639,3413,-4,-7,-2,
417,7,28,2023,12,52,33,165,2242,-642,3405,-4,-9,-4,
418,7,28,2023,12,52,33,175,2240,-641,3402,-6,-6,-2,
419,7,28,2023,12,52,33,185,2224,-651,3398,-6,-6,-2,
420,7,28,2023,12,52,33,195,2241,-647,3407,1,-7,-8,
421,7,28,2023,12,52,33,205,2240,-620,3401,2,-6,-11,
422,7,28,2023,12,52,33,215,2236,-624,3399,-5,-8,-4,
423,7,28,2023,12,52,33,225,2232,-648,3410,-3,-11,0,
424,7,28,2023,12,52,33,235,2225,-634,3410,-1,-10,-5,
425,7,28,2023,12,52,33,245,2232,-640,3410,-4,-14,-11,
426,7,28,2023,12,52,33,265,2253,-616,3407,0,-18,-12,
427,7,28,2023,12,52,33,275,2235,-633,3395,-5,-15,-7,
428,7,28,2023,12,52,33,285,2237,-640,3400,-1,-15,-6,
429,7,28,2023,12,52,33,295,2243,-642,3396,-5,-17,-7,
430,7,28,2023,12,52,33,305,2242,-637,3399,-5,-16,-11,
431,7,28,2023,12,52,33,315,2239,-630,3404,-6,-12,-11,
432,7,28,2023,12,52,33,325,2253,-627,3398,-2,-15,-7,
433,7,28,2023,12,52,33,335,2242,-637,3394,-4,-17,-6,
434,7,28,2023,12,52,33,345,2239,-654,3394,-1,-18,-8,
435,7,28,2023,12,52,33,355,2245,-611,3404,1,-18,-8,
436,7,28,2023,12,52,33,365,2239,-644,3398,-5,-20,-5,
437,7,28,2023,12,52,33,375,2242,-644,3407,-5,-17,-10,
438,7,28,2023,12,52,33,385,2258,-622,3402,1,-20,-12,
439,7,28,2023,12,52,33,395,2247,-629,3405,-3,-16,-10,
440,7,28,2023,12,52,33,405,2246,-628,3396,-1,-16,-8,
441,7,28,2023,12,52,33,415,2247,-623,3394,-2,-17,-6,
442,7,28,2023,12,52,33,425,2252,-629,3394,-6,-14,-5,
443,7,28,2023,12,52,33,435,2246,-645,3398,-7,-13,-2,
444,7,28,2023,12,52,33,445,2243,-639,3400,-8,-14,-6,
445,7,28,2023,12,52,33,455,2244,-638,3393,-6,-10,-6,
446,7,28,2023,12,52,33,465,2245,-636,3396,-2,-11,-10,
447,7,28,2023,12,52,33,475,2252,-628,3400,-3,-15,-10,
448,7,28,2023,12,52,33,485,2260,-623,3397,-4,-13,-4,
449,7,28,2023,12,52,33,495,2256,-613,3405,-6,-13,-3,
450,7,28,2023,12,52,33,505,2248,-629,3402,-8,-13,0,
451,7,28,2023,12,52,33,515,2251,-637,3390,-9,-11,1,
452,7,28,2023,12,52,33,525,2260,-624,3393,-7,-8,2,
453,7,28,2023,12,52,33,535,2258,-637,3393,-5,-6,7,
454,7,28,2023,12,52,33,545,2248,-644,3390,-6,-6,1,
455,7,28,2023,12,52,33,555,2248,-635,3398,-4,-5,0,
456,7,28,2023,12,52,33,565,2246,-634,3396,-3,-3,-4,
457,7,28,2023,12,52,33,575,2255,-640,3400,-2,-4,-4,
458,7,28,2023,12,52,33,585,2255,-624,3403,-3,-3,-6,
459,7,28,2023,12,52,33,595,2250,-622,3396,-4,-3,-3,
460,7,28,2023,12,52,33,605,2253,-623,3396,-2,-2,-3,
461,7,28,2023,12,52,33,615,2257,-625,3399,-8,-3,3,
462,7,28,2023,12,52,33,625,2250,-626,3388,-12,-1,1,
463,7,28,2023,12,52,33,635,2253,-630,3392,-8,-3,3,
464,7,28,2023,12,52,33,645,2252,-634,3391,-9,-1,5,
465,7,28,2023,12,52,33,655,2254,-641,3387,-5,0,8,
466,7,28,2023,12,52,33,665,2248,-631,3396,-5,0,3,
467,7,28,2023,12,52,33,675,2252,-638,3399,-7,1,1,
468,7,28,2023,12,52,33,685,2251,-642,3398,-4,-1,0,
469,7,28,2023,12,52,33,695,2249,-631,3396,-2,-1,2,
470,7,28,2023,12,52,33,705,2254,-637,3394,-7,-2,2,
471,7,28,2023,12,52,33,715,2261,-633,3389,-6,-3,6,
472,7,28,2023,12,52,33,725,2261,-636,3386,-5,1,3,
473,7,28,2023,12,52,33,735,2254,-631,3396,-2,5,4,
474,7,28,2023,12,52,33,745,2249,-639,3393,-5,10,4,
475,7,28,2023,12,52,33,755,2250,-630,3392,-3,13,3,
476,7,28,2023,12,52,33,765,2248,-629,3399,-5,15,2,
477,7,28,2023,12,52,33,775,2257,-629,3406,-4,10,9,
478,7,28,2023,12,52,33,785,2252,-638,3392,-3,13,12,
479,7,28,2023,12,52,33,795,2250,-639,3397,-3,12,8,
480,7,28,2023,12,52,33,805,2247,-635,3396,-4,11,6,
481,7,28,2023,12,52,33,815,2253,-636,3393,-2,10,10,
482,7,28,2023,12,52,33,825,2257,-641,3401,-3,12,5,
483,7,28,2023,12,52,33,835,2249,-644,3397,-5,11,7,
484,7,28,2023,12,52,33,845,2255,-637,3396,-5,12,7,
485,7,28,2023,12,52,33,855,2253,-626,3396,-5,17,3,
486,7,28,2023,12,52,33,865,2251,-635,3395,-3,11,5,
487,7,28,2023,12,52,33,875,2257,-635,3386,-3,15,10,
488,7,28,2023,12,52,33,885,2257,-636,3392,-4,17,12,
489,7,28,2023,12,52,33,895,2253,-634,3397,-4,19,13,
490,7,28,2023,12,52,33,905,2245,-638,3394,-4,24,12,
491,7,28,2023,12,52,33,915,2254,-637,3396,-4,25,9,
492,7,28,2023,12,52,33,925,2250,-629,3400,-5,25,11,
493,7,28,2023,12,52,33,935,2251,-635,3391,-2,22,11,
494,7,28,2023,12,52,33,945,2256,-631,3395,-4,19,8,
495,7,28,2023,12,52,33,955,2240,-638,3396,-5,21,10,
496,7,28,2023,12,52,33,965,2243,-641,3398,-4,23,10,
497,7,28,2023,12,52,33,975,2247,-642,3395,-1,24,11,
498,7,28,2023,12,52,33,985,2251,-635,3386,-1,22,9,
499,7,28,2023,12,52,33,995,2241,-633,3395,0,21,12,
500,7,28,2023,12,52,34,5,2250,-640,3395,1,23,9,
501,7,28,2023,12,52,34,15,2243,-639,3399,0,27,6,
502,7,28,2023,12,52,34,25,2246,-637,3408,0,27,6,
503,7,28,2023,12,52,34,35,2252,-635,3404,-1,26,6,
504,7,28,2023,12,52,34,45,2242,-637,3399,-3,23,10,
505,7,28,2023,12,52,34,55,2241,-643,3397,1,23,10,
506,7,28,2023,12,52,34,65,2235,-643,3395,2,23,8,
507,7,28,2023,12,52,34,75,2246,-643,3407,0,24,6,
508,7,28,2023,12,52,34,85,2246,-640,3403,-1,24,6,
509,7,28,2023,12,52,34,95,2240,-646,3411,-1,18,2,
510,7,28,2023,12,52,34,105,2243,-636,3407,-1,15,3,
511,7,28,2023,12,52,34,125,2242,-637,3407,0,12,8,
512,7,28,2023,12,52,34,135,2240,-640,3404,-3,12,8,
513,7,28,2023,12,52,34,145,2243,-646,3399,-4,9,9,
514,7,28,2023,12,52,34,155,2247,-637,3399,-2,13,9,
515,7,28,2023,12,52,34,165,2248,-639,3396,0,11,11,
516,7,28,2023,12,52,34,175,2245,-642,3401,2,8,8,
517,7,28,2023,12,52,34,185,2241,-644,3396,2,8,6,
518,7,28,2023,12,52,34,195,2243,-642,3401,3,10,4,
519,7,28,2023,12,52,34,205,2242,-633,3404,5,14,1,
520,7,28,2023,12,52,34,215,2244,-624,3401,3,13,-2,
521,7,28,2023,12,52,34,225,2242,-637,3395,0,14,2,
522,7,28,2023,12,52,34,235,2240,-636,3400,-1,14,6,
523,7,28,2023,12,52,34,245,2240,-629,3409,-2,13,7,
524,7,28,2023,12,52,34,255,2247,-640,3397,-2,16,7,
525,7,28,2023,12,52,34,265,2243,-646,3400,2,15,6,
526,7,28,2023,12,52,34,275,2245,-626,3403,3,16,5,
527,7,28,2023,12,52,34,285,2246,-634,3396,0,14,5,
528,7,28,2023,12,52,34,295,2242,-637,3401,1,13,11,
529,7,28,2023,12,52,34,305,2239,-639,3406,-1,15,9,
530,7,28,2023,12,52,34,315,2238,-639,3404,-1,13,7,
531,7,28,2023,12,52,34,325,2236,-646,3402,-2,12,7,
532,7,28,2023,12,52,34,335,2235,-638,3413,1,13,6,
533,7,28,2023,12,52,34,345,2245,-643,3408,1,11,4,
534,7,28,2023,12,52,34,355,2241,-641,3409,-2,11,1,
535,7,28,2023,12,52,34,365,2239,-635,3415,-5,8,3,
536,7,28,2023,12,52,34,375,2242,-625,3413,-5,5,7,
537,7,28,2023,12,52,34,385,2236,-636,3410,-5,8,6,
538,7,28,2023,12,52,34,395,2237,-643,3401,-3,6,7,
539,7,28,2023,12,52,34,405,2235,-639,3398,-4,5,6,
540,7,28,2023,12,52,34,415,2239,-637,3402,-5,7,4,
541,7,28,2023,12,52,34,425,2243,-642,3409,-2,6,4,
542,7,28,2023,12,52,34,435,2244,-640,3406,-5,8,2,
543,7,28,2023,12,52,34,445,2236,-639,3399,-6,11,4,
544,7,28,2023,12,52,34,455,2244,-636,3407,-5,8,6,
545,7,28,2023,12,52,34,465,2234,-639,3413,-3,5,9,
546,7,28,2023,12,52,34,475,2234,-640,3406,-3,7,4,
547,7,28,2023,12,52,34,485,2236,-633,3400,-7,10,1,
548,7,28,2023,12,52,34,495,2237,-637,3405,-3,10,7,
549,7,28,2023,12,52,34,505,2237,-634,3403,-1,11,6,
550,7,28,2023,12,52,34,515,2237,-636,3404,-2,11,5,
551,7,28,2023,12,52,34,525,2243,-638,3400,-4,16,5,
552,7,28,2023,12,52,34,535,2243,-638,3406,-2,15,4,
553,7,28,2023,12,52,34,545,2243,-642,3406,-4,13,6,
554,7,28,2023,12,52,34,555,2238,-636,3401,-4,11,7,
555,7,28,2023,12,52,34,565,2232,-646,3412,-3,12,7,
556,7,28,2023,12,52,34,575,2237,-646,3406,-3,10,7,
557,7,28,2023,12,52,34,585,2233,-644,3403,-3,13,4,
558,7,28,2023,12,52,34,595,2242,-635,3410,-2,13,4,
559,7,28,2023,12,52,34,605,2239,-641,3406,-1,10,3,
560,7,28,2023,12,52,34,615,2237,-642,3410,-1,10,5,
561,7,28,2023,12,52,34,625,2242,-637,3408,-3,13,6,
562,7,28,2023,12,52,34,635,2239,-637,3400,-2,11,6,
563,7,28,2023,12,52,34,645,2231,-637,3402,-3,12,6,
564,7,28,2023,12,52,34,655,2243,-644,3404,-4,11,6,
565,7,28,2023,12,52,34,665,2244,-643,3408,-1,10,5,
566,7,28,2023,12,52,34,675,2241,-640,3404,-1,13,2,
567,7,28,2023,12,52,34,685,2241,-651,3396,-1,13,2,
568,7,28,2023,12,52,34,695,2235,-640,3403,9,16,-2,
569,7,28,2023,12,52,34,705,2242,-623,3402,7,16,-2,
570,7,28,2023,12,52,34,715,2231,-647,3399,3,16,4,
571,7,28,2023,12,52,34,725,2242,-636,3403,5,18,5,
572,7,28,2023,12,52,34,735,2246,-632,3410,6,19,5,
573,7,28,2023,12,52,34,745,2247,-629,3423,3,22,6,
574,7,28,2023,12,52,34,755,2239,-635,3390,2,25,9,
575,7,28,2023,12,52,34,765,2232,-630,3410,3,29,11,
576,7,28,2023,12,52,34,775,2211,-635,3416,3,28,11,
577,7,28,2023,12,52,34,785,2243,-642,3408,-1,21,9,
578,7,28,2023,12,52,34,795,2242,-634,3408,4,20,9,
579,7,28,2023,12,52,34,805,2234,-633,3410,1,19,10,
580,7,28,2023,12,52,34,815,2239,-637,3402,-3,22,8,
581,7,28,2023,12,52,34,825,2244,-629,3390,-2,27,13,
582,7,28,2023,12,52,34,835,2230,-629,3404,-2,35,16,
583,7,28,2023,12,52,34,845,2245,-627,3396,-1,46,14,
584,7,28,2023,12,52,34,855,2213,-624,3411,1,45,15,
585,7,28,2023,12,52,34,865,2226,-654,3408,2,42,18,
586,7,28,2023,12,52,34,875,2237,-634,3403,4,43,17,
587,7,28,2023,12,52,34,885,2207,-637,3413,0,45,17,
588,7,28,2023,12,52,34,895,2235,-645,3411,2,47,14,
589,7,28,2023,12,52,34,905,2216,-616,3425,2,49,16,
590,7,28,2023,12,52,34,915,2224,-641,3437,-4,46,17,
591,7,28,2023,12,52,34,925,2216,-670,3421,-7,34,18,
592,7,28,2023,12,52,34,935,2225,-635,3426,-5,23,12,
593,7,28,2023,12,52,34,945,2224,-653,3424,-11,17,9,
594,7,28,2023,12,52,34,955,2219,-666,3407,-11,14,9,
595,7,28,2023,12,52,34,965,2225,-651,3398,-4,17,3,
596,7,28,2023,12,52,34,985,2240,-588,3411,-5,25,5,
597,7,28,2023,12,52,34,995,2229,-638,3395,-13,32,21,
598,7,28,2023,12,52,35,5,2225,-596,3418,-12,41,26,
599,7,28,2023,12,52,35,15,2230,-570,3399,-25,49,39,
600,7,28,2023,12,52,35,25,2211,-691,3402,-39,50,62,
601,7,28,2023,12,52,35,35,2211,-709,3407,-23,55,49,
602,7,28,2023,12,52,35,45,2212,-684,3424,-13,54,34,
603,7,28,2023,12,52,35,55,2188,-713,3426,-5,46,26,
604,7,28,2023,12,52,35,65,2224,-661,3427,15,40,4,
605,7,28,2023,12,52,35,75,2205,-648,3445,15,31,-4,
606,7,28,2023,12,52,35,85,2210,-666,3429,9,17,-7,
607,7,28,2023,12,52,35,95,2211,-634,3428,10,10,-14,
608,7,28,2023,12,52,35,105,2203,-665,3421,7,2,-12,
609,7,28,2023,12,52,35,115,2221,-654,3419,14,2,-17,
610,7,28,2023,12,52,35,125,2209,-656,3420,19,4,-22,
611,7,28,2023,12,52,35,135,2219,-644,3415,21,1,-24,
612,7,28,2023,12,52,35,145,2211,-632,3415,23,3,-27,
613,7,28,2023,12,52,35,155,2212,-646,3420,22,2,-22,
614,7,28,2023,12,52,35,165,2215,-651,3424,21,-1,-25,
615,7,28,2023,12,52,35,175,2215,-641,3429,26,-5,-26,
616,7,28,2023,12,52,35,185,2215,-643,3428,25,-10,-29,
617,7,28,2023,12,52,35,195,2214,-639,3433,25,-16,-29,
618,7,28,2023,12,52,35,205,2216,-636,3428,25,-24,-30,
619,7,28,2023,12,52,35,215,2206,-669,3421,25,-28,-31,
620,7,28,2023,12,52,35,225,2222,-630,3435,30,-33,-38,
621,7,28,2023,12,52,35,235,2212,-660,3431,31,-39,-41,
622,7,28,2023,12,52,35,245,2213,-626,3434,27,-45,-43,
623,7,28,2023,12,52,35,255,2227,-649,3431,27,-55,-42,
624,7,28,2023,12,52,35,265,2212,-626,3443,25,-62,-39,
625,7,28,2023,12,52,35,275,2227,-641,3423,26,-74,-45,
626,7,28,2023,12,52,35,285,2215,-594,3429,27,-83,-46,
627,7,28,2023,12,52,35,295,2235,-626,3389,22,-81,-42,
628,7,28,2023,12,52,35,305,2209,-598,3421,17,-79,-41,
629,7,28,2023,12,52,35,315,2230,-651,3391,12,-77,-39,
630,7,28,2023,12,52,35,325,2227,-598,3427,23,-73,-43,
631,7,28,2023,12,52,35,335,2259,-592,3402,7,-78,-35,
632,7,28,2023,12,52,35,345,2212,-664,3425,10,-80,-29,
633,7,28,2023,12,52,35,355,2270,-573,3411,16,-80,-41,
634,7,28,2023,12,52,35,365,2219,-633,3407,6,-78,-31,
635,7,28,2023,12,52,35,375,2266,-557,3394,1,-79,-28,
636,7,28,2023,12,52,35,385,2231,-628,3402,-10,-74,-16,
637,7,28,2023,12,52,35,395,2248,-604,3393,-10,-65,-13,
638,7,28,2023,12,52,35,405,2262,-589,3399,-6,-56,-13,
639,7,28,2023,12,52,35,415,2217,-647,3403,-10,-58,-5,
640,7,28,2023,12,52,35,425,2258,-618,3397,-6,-60,-16,
641,7,28,2023,12,52,35,435,2251,-613,3398,-9,-60,-17,
642,7,28,2023,12,52,35,445,2258,-619,3392,-11,-61,-11,
643,7,28,2023,12,52,35,455,2248,-659,3376,-10,-55,-8,
644,7,28,2023,12,52,35,465,2259,-593,3389,2,-46,-20,
645,7,28,2023,12,52,35,475,2265,-580,3389,-8,-43,-15,
646,7,28,2023,12,52,35,485,2251,-641,3378,-14,-35,-5,
647,7,28,2023,12,52,35,495,2263,-600,3397,-9,-27,-5,
648,7,28,2023,12,52,35,505,2259,-625,3397,-10,-23,-2,
649,7,28,2023,12,52,35,515,2251,-608,3411,-7,-26,-2,
650,7,28,2023,12,52,35,525,2270,-592,3390,-14,-31,3,
651,7,28,2023,12,52,35,535,2242,-622,3388,-22,-29,10,
652,7,28,2023,12,52,35,545,2259,-607,3384,-19,-23,9,
653,7,28,2023,12,52,35,555,2261,-598,3391,-19,-24,10,
654,7,28,2023,12,52,35,565,2255,-631,3382,-29,-19,18,
655,7,28,2023,12,52,35,575,2250,-644,3383,-22,-11,13,
656,7,28,2023,12,52,35,585,2267,-626,3372,-14,-8,5,
657,7,28,2023,12,52,35,595,2259,-634,3375,-16,-3,7,
658,7,28,2023,12,52,35,605,2256,-638,3380,-8,6,2,
659,7,28,2023,12,52,35,615,2264,-625,3396,-6,2,-1,
660,7,28,2023,12,52,35,625,2261,-630,3403,-8,3,1,
661,7,28,2023,12,52,35,635,2269,-620,3402,-8,1,3,
662,7,28,2023,12,52,35,645,2255,-615,3385,-9,-4,6,
663,7,28,2023,12,52,35,655,2265,-611,3392,-13,-3,7,
664,7,28,2023,12,52,35,665,2268,-610,3379,-14,5,11,
665,7,28,2023,12,52,35,675,2259,-613,3377,-14,11,15,
666,7,28,2023,12,52,35,685,2254,-631,3382,-14,15,18,
667,7,28,2023,12,52,35,695,2252,-629,3388,-11,23,18,
668,7,28,2023,12,52,35,705,2261,-631,3392,-11,26,14,
669,7,28,2023,12,52,35,715,2254,-637,3400,-10,28,13,
670,7,28,2023,12,52,35,725,2256,-638,3398,-9,25,9,
671,7,28,2023,12,52,35,735,2257,-619,3401,-10,18,4,
672,7,28,2023,12,52,35,745,2256,-626,3401,-12,11,7,
673,7,28,2023,12,52,35,755,2247,-633,3387,-11,5,8,
674,7,28,2023,12,52,35,765,2261,-603,3393,-13,7,7,
675,7,28,2023,12,52,35,775,2264,-614,3370,-19,14,14,
676,7,28,2023,12,52,35,785,2261,-622,3373,-14,24,15,
677,7,28,2023,12,52,35,795,2265,-569,3377,-14,35,18,
678,7,28,2023,12,52,35,805,2238,-621,3377,-24,43,28,
679,7,28,2023,12,52,35,815,2248,-634,3395,-26,40,33,
680,7,28,2023,12,52,35,825,2238,-662,3409,-24,40,30,
681,7,28,2023,12,52,35,845,2254,-658,3410,-24,20,26,
682,7,28,2023,12,52,35,855,2262,-636,3391,-19,16,20,
683,7,28,2023,12,52,35,865,2249,-637,3389,-21,20,14,
684,7,28,2023,12,52,35,875,2251,-608,3386,-20,23,12,
685,7,28,2023,12,52,35,885,2266,-586,3378,-17,36,10,
686,7,28,2023,12,52,35,895,2255,-567,3399,-27,42,28,
687,7,28,2023,12,52,35,905,2270,-597,3383,-37,55,45,
688,7,28,2023,12,52,35,915,2270,-594,3365,-46,66,58,
689,7,28,2023,12,52,35,925,2265,-536,3363,-54,91,71,
690,7,28,2023,12,52,35,935,2261,-552,3367,-67,121,100,
691,7,28,2023,12,52,35,945,2245,-677,3385,-80,141,135,
692,7,28,2023,12,52,35,955,2188,-793,3417,-79,133,136,
693,7,28,2023,12,52,35,965,2172,-773,3471,-50,100,86,
694,7,28,2023,12,52,35,975,2210,-685,3463,-34,50,45,
695,7,28,2023,12,52,35,985,2203,-742,3446,-40,9,34,
696,7,28,2023,12,52,35,995,2232,-645,3431,-16,-5,3,
697,7,28,2023,12,52,36,5,2234,-636,3430,-18,-18,3,
698,7,28,2023,12,52,36,15,2235,-662,3418,-26,-32,17,
699,7,28,2023,12,52,36,25,2216,-737,3396,-25,-36,15,
700,7,28,2023,12,52,36,35,2245,-702,3411,-2,-37,-7,
701,7,28,2023,12,52,36,45,2214,-740,3419,13,-50,-24,
702,7,28,2023,12,52,36,55,2214,-705,3426,32,-64,-54,
703,7,28,2023,12,52,36,65,2228,-673,3441,40,-78,-74,
704,7,28,2023,12,52,36,75,2229,-655,3438,42,-99,-80,
705,7,28,2023,12,52,36,85,2209,-674,3432,38,-125,-84,
706,7,28,2023,12,52,36,95,2178,-705,3465,49,-155,-97,
707,7,28,2023,12,52,36,105,2199,-753,3474,50,-205,-122,
708,7,28,2023,12,52,36,115,2204,-753,3472,66,-268,-156,
709,7,28,2023,12,52,36,125,2218,-738,3459,82,-325,-203,
710,7,28,2023,12,52,36,135,2253,-707,3456,90,-365,-239,
711,7,28,2023,12,52,36,145,2255,-665,3468,116,-410,-263,
712,7,28,2023,12,52,36,155,2236,-538,3578,126,-473,-272,
713,7,28,2023,12,52,36,165,2245,-513,3661,68,-585,-272,
714,7,28,2023,12,52,36,175,2289,-597,3670,-42,-741,-262,
715,7,28,2023,12,52,36,185,2211,-723,3681,-63,-904,-289,
716,7,28,2023,12,52,36,195,2323,-695,3504,30,-1048,-342,
717,7,28,2023,12,52,36,205,2411,-469,3356,154,-1108,-340,
718,7,28,2023,12,52,36,215,2505,-563,3119,181,-1069,-290,
719,7,28,2023,12,52,36,225,2504,-529,3048,204,-945,-259,
720,7,28,2023,12,52,36,235,2521,-628,2990,173,-794,-253,
721,7,28,2023,12,52,36,245,2576,-514,2982,146,-640,-252,
722,7,28,2023,12,52,36,255,2583,-475,2978,86,-479,-229,
723,7,28,2023,12,52,36,265,2593,-421,2987,43,-330,-180,
724,7,28,2023,12,52,36,275,2597,-387,3020,25,-181,-114,
725,7,28,2023,12,52,36,285,2552,-351,3081,18,-52,-31,
726,7,28,2023,12,52,36,295,2526,-350,3116,-13,51,52,
727,7,28,2023,12,52,36,305,2511,-420,3129,-50,139,124,
728,7,28,2023,12,52,36,315,2455,-452,3150,-70,210,184,
729,7,28,2023,12,52,36,325,2391,-572,3155,-92,261,213,
730,7,28,2023,12,52,36,335,2379,-670,3223,-89,303,213,
731,7,28,2023,12,52,36,345,2403,-594,3281,-66,319,187,
732,7,28,2023,12,52,36,355,2405,-647,3316,-81,312,177,
733,7,28,2023,12,52,36,365,2389,-612,3358,-62,292,163,
734,7,28,2023,12,52,36,375,2397,-660,3366,-56,265,141,
735,7,28,2023,12,52,36,385,2394,-611,3376,-40,228,122,
736,7,28,2023,12,52,36,395,2394,-604,3375,-49,182,115,
737,7,28,2023,12,52,36,405,2388,-596,3358,-52,144,107,
738,7,28,2023,12,52,36,415,2370,-527,3344,-55,119,111,
739,7,28,2023,12,52,36,425,2354,-588,3309,-74,94,124,
740,7,28,2023,12,52,36,435,2346,-577,3316,-78,73,125,
741,7,28,2023,12,52,36,445,2352,-616,3283,-92,62,119,
742,7,28,2023,12,52,36,455,2367,-612,3302,-94,60,104,
743,7,28,2023,12,52,36,465,2396,-581,3315,-105,62,95,
744,7,28,2023,12,52,36,475,2434,-467,3274,-136,64,108,
745,7,28,2023,12,52,36,485,2402,-486,3281,-170,80,140,
746,7,28,2023,12,52,36,495,2379,-405,3200,-209,98,190,
747,7,28,2023,12,52,36,505,2367,-332,3272,-308,131,249,
748,7,28,2023,12,52,36,515,2326,-549,3333,-380,156,320,
749,7,28,2023,12,52,36,525,2364,-601,3369,-346,157,368,
750,7,28,2023,12,52,36,535,2335,-881,3366,-292,122,383,
751,7,28,2023,12,52,36,545,2288,-1033,3401,-196,66,326,
752,7,28,2023,12,52,36,555,2274,-1075,3465,-138,1,203,
753,7,28,2023,12,52,36,565,2272,-974,3579,-88,-102,67,
754,7,28,2023,12,52,36,575,2214,-866,3823,-88,-293,-41,
755,7,28,2023,12,52,36,585,2078,-987,4191,-159,-625,-156,
756,7,28,2023,12,52,36,595,2025,-1166,4447,-252,-1201,-374,
757,7,28,2023,12,52,36,605,2045,-1085,4496,-250,-1929,-667,
758,7,28,2023,12,52,36,615,2031,-1198,4656,-393,-2605,-878,
759,7,28,2023,12,52,36,625,2069,-1562,4872,-403,-3349,-1121,
760,7,28,2023,12,52,36,635,2331,-1325,5140,-259,-4145,-1425,
761,7,28,2023,12,52,36,645,2953,-1838,5261,-337,-4919,-1800,
762,7,28,2023,12,52,36,655,3727,-1536,5487,-421,-5537,-2221,
763,7,28,2023,12,52,36,665,5339,-2470,5299,-1068,-5929,-2549,
764,7,28,2023,12,52,36,675,6892,-3788,3766,-947,-5704,-3036,
765,7,28,2023,12,52,36,685,8531,-1756,3845,953,-5682,-3560,
766,7,28,2023,12,52,36,705,5682,-1525,5469,-1294,-3518,-2117,
767,7,28,2023,12,52,36,715,4642,-2798,4248,-1891,-3516,-2606,
768,7,28,2023,12,52,36,725,5899,-2277,5050,-989,-3741,-3476,
769,7,28,2023,12,52,36,735,5273,-1825,5516,-793,-3061,-3705,
770,7,28,2023,12,52,36,745,3922,-2649,4936,-1286,-2343,-3534,
771,7,28,2023,12,52,36,755,3259,-3233,4507,-1206,-2016,-3278,
772,7,28,2023,12,52,36,765,2901,-2963,4459,-725,-1805,-2746,
773,7,28,2023,12,52,36,775,2437,-2837,4360,-542,-1533,-1929,
774,7,28,2023,12,52,36,785,1916,-2752,4205,-522,-1246,-998,
775,7,28,2023,12,52,36,795,1352,-2446,4030,-467,-944,-17,
776,7,28,2023,12,52,36,805,914,-2058,3938,-437,-607,874,
777,7,28,2023,12,52,36,815,659,-1480,3843,-507,-164,1626,
778,7,28,2023,12,52,36,825,29,-1221,3610,-715,445,2226,
779,7,28,2023,12,52,36,835,-602,-971,3356,-816,1056,2557,
780,7,28,2023,12,52,36,845,-1155,-634,3102,-830,1622,2639,
781,7,28,2023,12,52,36,855,-1473,-666,2891,-895,2144,2527,
782,7,28,2023,12,52,36,865,-1208,-702,2902,-877,2619,2343,
783,7,28,2023,12,52,36,875,-1107,-462,2751,-874,3161,2411,
784,7,28,2023,12,52,36,885,-1656,-488,2284,-999,3654,2674,
785,7,28,2023,12,52,36,895,-1709,-560,1968,-996,3811,2904,
786,7,28,2023,12,52,36,905,-1184,-464,1958,-879,3819,3171,
787,7,28,2023,12,52,36,915,-767,-370,1926,-800,3934,3549,
788,7,28,2023,12,52,36,925,-539,-155,1772,-707,4065,3942,
789,7,28,2023,12,52,36,935,-136,134,1609,-621,4101,4286,
790,7,28,2023,12,52,36,945,334,463,1501,-532,4086,4556,
791,7,28,2023,12,52,36,955,928,860,1498,-421,4058,4738,
792,7,28,2023,12,52,36,965,1668,1298,1515,-283,4066,4863,
793,7,28,2023,12,52,36,975,2165,1581,1301,-144,4132,4848,
794,7,28,2023,12,52,36,985,2604,1856,1146,115,4070,4525,
795,7,28,2023,12,52,36,995,3369,2028,1080,369,3835,3954,
796,7,28,2023,12,52,37,5,4128,1819,768,559,3598,3231,
797,7,28,2023,12,52,37,15,4415,1714,263,867,3230,2420,
798,7,28,2023,12,52,37,25,4792,1698,-206,1120,2420,1592,
799,7,28,2023,12,52,37,35,5474,1352,-584,1117,1242,848,
800,7,28,2023,12,52,37,45,6195,675,-929,941,-36,371,
801,7,28,2023,12,52,37,55,6736,-142,-1386,867,-1324,310,
802,7,28,2023,12,52,37,65,6681,-713,-1906,1029,-2638,479,
803,7,28,2023,12,52,37,75,7107,-1620,-1813,1098,-4008,577,
804,7,28,2023,12,52,37,85,21027,-9367,-1320,2735,-4531,-181,
805,7,28,2023,12,52,37,95,20398,-7219,3112,6102,-1078,-1474,
806,7,28,2023,12,52,37,105,-3846,937,7751,5245,2774,-1777,
807,7,28,2023,12,52,37,115,-4680,1827,9226,3470,996,-2524,
808,7,28,2023,12,52,37,125,1989,2019,5467,1046,-49,-2236,
809,7,28,2023,12,52,37,135,5116,588,2851,119,-603,-1613,
810,7,28,2023,12,52,37,145,3745,-119,1569,18,-825,-705,
811,7,28,2023,12,52,37,155,3738,303,1520,248,-251,-237,
812,7,28,2023,12,52,37,165,2986,-443,1522,294,927,107,
813,7,28,2023,12,52,37,175,2529,-2057,2660,365,1924,219,
814,7,28,2023,12,52,37,185,1730,-1688,4310,903,2112,3,
815,7,28,2023,12,52,37,195,1865,-560,4828,1144,1587,-309,
816,7,28,2023,12,52,37,205,2484,-4,4102,803,806,-282,
817,7,28,2023,12,52,37,215,2840,-472,3160,485,425,-101,
818,7,28,2023,12,52,37,225,2599,-876,3271,461,472,21,
819,7,28,2023,12,52,37,235,2352,-771,3520,532,474,61,
820,7,28,2023,12,52,37,245,2391,-620,3389,528,387,131,
821,7,28,2023,12,52,37,255,2463,-634,3277,472,395,182,
822,7,28,2023,12,52,37,265,2366,-840,3274,430,480,150,
823,7,28,2023,12,52,37,275,2275,-997,3220,441,591,29,
824,7,28,2023,12,52,37,285,2320,-766,3388,641,823,-218,
825,7,28,2023,12,52,37,295,2335,-738,3336,689,855,-268,
826,7,28,2023,12,52,37,305,2289,-594,3419,704,893,-267,
827,7,28,2023,12,52,37,315,2157,-487,3627,666,876,-224,
828,7,28,2023,12,52,37,325,2105,-417,3801,570,747,-165,
829,7,28,2023,12,52,37,335,2113,-139,3908,415,504,-79,
830,7,28,2023,12,52,37,345,2024,-451,3743,158,204,35,
831,7,28,2023,12,52,37,355,2018,-828,3551,69,32,31,
832,7,28,2023,12,52,37,365,2094,-653,3563,83,-42,-52,
833,7,28,2023,12,52,37,375,2140,-500,3589,38,-112,-92,
834,7,28,2023,12,52,37,385,2156,-519,3522,-26,-185,-72,
835,7,28,2023,12,52,37,395,2189,-566,3475,-68,-224,-42,
836,7,28,2023,12,52,37,405,2223,-501,3462,-99,-244,-28,
837,7,28,2023,12,52,37,415,2181,-561,3506,-140,-266,3,
838,7,28,2023,12,52,37,425,2185,-624,3516,-167,-306,15,
839,7,28,2023,12,52,37,435,2126,-565,3533,-185,-355,2,
840,7,28,2023,12,52,37,445,2094,-657,3559,-207,-434,-9,
841,7,28,2023,12,52,37,455,2126,-853,3469,-178,-518,-47,
842,7,28,2023,12,52,37,465,2210,-776,3397,-136,-541,-119,
843,7,28,2023,12,52,37,475,2285,-628,3353,-98,-546,-154,
844,7,28,2023,12,52,37,485,2313,-663,3294,-86,-512,-151,
845,7,28,2023,12,52,37,495,2344,-575,3262,-63,-444,-148,
846,7,28,2023,12,52,37,505,2341,-551,3197,-61,-366,-107,
847,7,28,2023,12,52,37,515,2233,-808,3128,-61,-272,-68,
848,7,28,2023,12,52,37,525,2205,-893,3251,-16,-170,-111,
849,7,28,2023,12,52,37,535,2257,-698,3399,34,-126,-182,
850,7,28,2023,12,52,37,545,2285,-575,3405,43,-145,-172,
851,7,28,2023,12,52,37,565,2299,-402,3414,-10,-233,-67,
852,7,28,2023,12,52,37,575,2245,-542,3393,-52,-270,1,
853,7,28,2023,12,52,37,585,2230,-550,3410,-70,-287,19,
854,7,28,2023,12,52,37,595,2261,-462,3468,-85,-321,37,
855,7,28,2023,12,52,37,605,2264,-615,3423,-109,-373,79,
856,7,28,2023,12,52,37,615,2222,-887,3358,-67,-416,52,
857,7,28,2023,12,52,37,625,2237,-773,3353,-20,-441,-33,
858,7,28,2023,12,52,37,635,2265,-629,3396,-32,-466,-89,
859,7,28,2023,12,52,37,645,2205,-732,3543,-52,-523,-115,
860,7,28,2023,12,52,37,655,2261,-756,3636,-75,-664,-169,
861,7,28,2023,12,52,37,665,2226,-714,3758,-129,-856,-251,
862,7,28,2023,12,52,37,675,2344,-798,3760,-256,-1094,-337,
863,7,28,2023,12,52,37,685,2267,-845,3836,-263,-1351,-438,
864,7,28,2023,12,52,37,695,2341,-551,3940,-211,-1654,-525,
865,7,28,2023,12,52,37,705,2396,-547,3972,-417,-2030,-551,
866,7,28,2023,12,52,37,715,2372,-516,4106,-643,-2446,-567,
867,7,28,2023,12,52,37,725,2400,-152,4381,-542,-2927,-503,
868,7,28,2023,12,52,37,735,2370,-241,4510,-522,-3594,-292,
869,7,28,2023,12,52,37,745,2289,-1045,4437,-809,-4397,-193,
870,7,28,2023,12,52,37,755,2040,-1386,4577,-798,-5125,-411,
871,7,28,2023,12,52,37,765,1875,-575,4842,-520,-5957,-672,
872,7,28,2023,12,52,37,775,1851,-1110,4813,-615,-7047,-862,
873,7,28,2023,12,52,37,785,2099,-1678,4874,-602,-8146,-1308,
874,7,28,2023,12,52,37,795,2115,-2341,5119,-345,-9245,-1903,
875,7,28,2023,12,52,37,805,2440,-2625,4970,146,-10444,-2594,
876,7,28,2023,12,52,37,815,4637,-2990,4643,308,-11421,-3291,
877,7,28,2023,12,52,37,825,8521,-1395,5791,-65,-11336,-3615,
878,7,28,2023,12,52,37,835,9051,-1506,4484,-1417,-10517,-3674,
879,7,28,2023,12,52,37,845,12707,-1746,2331,-2433,-9853,-3769,
880,7,28,2023,12,52,37,855,13006,4,-210,-911,-8683,-5198,
881,7,28,2023,12,52,37,865,16988,2552,756,-111,-8074,-5618,
882,7,28,2023,12,52,37,875,18581,-1448,3405,-1355,-6162,-4700,
883,7,28,2023,12,52,37,885,11652,-2511,2678,-852,-3251,-3992,
884,7,28,2023,12,52,37,895,9391,-1036,3242,613,-2869,-3987,
885,7,28,2023,12,52,37,905,9132,165,4452,389,-3228,-3818,
886,7,28,2023,12,52,37,915,7842,-831,4898,-1143,-3133,-3269,
887,7,28,2023,12,52,37,925,6084,-2408,4867,-1993,-2474,-2785,
888,7,28,2023,12,52,37,935,4256,-3469,4692,-1639,-1726,-2551,
889,7,28,2023,12,52,37,945,2863,-3768,4505,-403,-1014,-2416,
890,7,28,2023,12,52,37,955,1589,-3134,4597,922,-219,-2107,
891,7,28,2023,12,52,37,965,704,-2069,4681,1292,691,-1459,
892,7,28,2023,12,52,37,975,-108,-1586,4431,546,1803,-421,
893,7,28,2023,12,52,37,985,-1604,-1955,3579,-441,2938,738,
894,7,28,2023,12,52,37,995,-2955,-2115,2713,-805,3615,1501,
895,7,28,2023,12,52,38,5,-3378,-1686,2308,-736,3832,1838,
896,7,28,2023,12,52,38,15,-3064,-1448,2197,-826,4027,1985,
897,7,28,2023,12,52,38,25,-2976,-1561,1912,-1009,4536,2149,
898,7,28,2023,12,52,38,35,-3359,-1406,1641,-1040,5094,2301,
899,7,28,2023,12,52,38,45,-3347,-1028,1276,-1202,5453,2537,
900,7,28,2023,12,52,38,55,-3519,-1162,712,-1439,5654,2929,
901,7,28,2023,12,52,38,65,-3344,-1191,486,-1391,5560,3346,
902,7,28,2023,12,52,38,75,-2474,-872,693,-1274,5375,3886,
903,7,28,2023,12,52,38,85,-2050,-708,715,-1369,5472,4554,
904,7,28,2023,12,52,38,95,-1973,-602,618,-1442,5673,5105,
905,7,28,2023,12,52,38,105,-1237,-383,656,-1425,5784,5478,
906,7,28,2023,12,52,38,115,-560,-126,520,-1355,6006,5813,
907,7,28,2023,12,52,38,125,-72,61,164,-1209,6211,6051,
908,7,28,2023,12,52,38,135,718,349,-207,-936,6206,6161,
909,7,28,2023,12,52,38,145,1740,763,-575,-604,6015,6274,
910,7,28,2023,12,52,38,155,2891,1006,-1165,-303,5632,6364,
911,7,28,2023,12,52,38,165,4287,1467,-1856,52,4935,6262,
912,7,28,2023,12,52,38,175,5933,1498,-2901,265,3912,5763,
913,7,28,2023,12,52,38,185,7546,1294,-3861,509,2527,4856,
914,7,28,2023,12,52,38,195,8990,1479,-4462,699,802,3976,
915,7,28,2023,12,52,38,205,10011,961,-5238,559,-1049,3586,
916,7,28,2023,12,52,38,215,18755,-1505,-7108,1676,-2845,2524,
917,7,28,2023,12,52,38,225,30305,4761,-4736,4989,-1414,-1967,
918,7,28,2023,12,52,38,235,9397,908,-1210,2828,2509,-4135,
919,7,28,2023,12,52,38,245,-4441,-89,6714,2743,1151,-1277,
920,7,28,2023,12,52,38,255,-2064,5557,9462,2989,1809,-427,
921,7,28,2023,12,52,38,265,6937,-1714,1006,-885,3100,146,
922,7,28,2023,12,52,38,275,5015,-154,2167,866,2566,796,
923,7,28,2023,12,52,38,285,1541,-1325,3042,463,2308,928,
924,7,28,2023,12,52,38,295,2304,-2475,2085,701,2955,691,
925,7,28,2023,12,52,38,305,2858,-3365,1875,1030,3606,150,
926,7,28,2023,12,52,38,315,2664,-2664,2861,1606,4188,-628,
927,7,28,2023,12,52,38,325,2281,-1374,4135,2136,4339,-1155,
928,7,28,2023,12,52,38,335,2190,814,5143,2335,3767,-1216,
929,7,28,2023,12,52,38,345,2387,1369,5060,1532,2502,-711,
930,7,28,2023,12,52,38,355,2496,353,4195,719,1315,-59,
931,7,28,2023,12,52,38,365,2478,-935,3358,386,748,286,
932,7,28,2023,12,52,38,375,2336,-1401,3082,381,706,226,
933,7,28,2023,12,52,38,385,2364,-891,3280,494,830,21,
934,7,28,2023,12,52,38,395,2429,-366,3601,476,856,-36,
935,7,28,2023,12,52,38,405,2338,-317,3739,319,728,45,
936,7,28,2023,12,52,38,425,2225,-642,3725,-12,254,163,
937,7,28,2023,12,52,38,435,2359,-639,3641,-114,44,166,
938,7,28,2023,12,52,38,445,2316,-595,3632,-208,-130,172,
939,7,28,2023,12,52,38,455,2205,-622,3631,-316,-315,204,
940,7,28,2023,12,52,38,465,2262,-799,3532,-420,-496,229,
941,7,28,2023,12,52,38,475,2388,-813,3435,-459,-606,227,
942,7,28,2023,12,52,38,485,2297,-765,3420,-478,-670,234,
943,7,28,2023,12,52,38,495,2207,-733,3466,-511,-754,276,
944,7,28,2023,12,52,38,505,2305,-881,3422,-536,-896,316,
945,7,28,2023,12,52,38,515,2379,-1014,3367,-446,-1014,303,
946,7,28,2023,12,52,38,525,2217,-965,3433,-442,-1087,231,
947,7,28,2023,12,52,38,535,2175,-1069,3384,-465,-1204,153,
948,7,28,2023,12,52,38,545,2328,-863,3492,-412,-1316,97,
949,7,28,2023,12,52,38,555,2378,-815,3525,-454,-1487,74,
950,7,28,2023,12,52,38,565,2292,-801,3425,-496,-1690,87,
951,7,28,2023,12,52,38,575,2278,-1191,3292,-609,-1866,87,
952,7,28,2023,12,52,38,585,2537,-1084,3132,-459,-1949,-4,
953,7,28,2023,12,52,38,595,2591,-982,3009,-374,-1951,-63,
954,7,28,2023,12,52,38,605,2570,-1026,2883,-377,-1909,-88,
955,7,28,2023,12,52,38,615,2440,-1079,2937,-308,-1878,-127,
956,7,28,2023,12,52,38,625,2610,-1077,3035,-192,-1904,-176,
957,7,28,2023,12,52,38,635,2792,-1321,2884,-94,-1930,-276,
958,7,28,2023,12,52,38,645,2671,-1374,2855,37,-1899,-453,
959,7,28,2023,12,52,38,655,2642,-1342,2818,129,-1849,-625,
960,7,28,2023,12,52,38,665,2711,-1138,2875,206,-1800,-754,
961,7,28,2023,12,52,38,675,2860,-879,2894,214,-1792,-829,
962,7,28,2023,12,52,38,685,2790,-748,2870,170,-1793,-842,
963,7,28,2023,12,52,38,695,2740,-747,2917,114,-1818,-821,
964,7,28,2023,12,52,38,705,2871,-810,2938,57,-1908,-801,
965,7,28,2023,12,52,38,715,2870,-952,2992,11,-2009,-824,
966,7,28,2023,12,52,38,725,2776,-891,3093,3,-2161,-899,
967,7,28,2023,12,52,38,735,2757,-759,3148,30,-2368,-966,
968,7,28,2023,12,52,38,745,2906,-662,3078,47,-2622,-991,
969,7,28,2023,12,52,38,755,2890,-538,3128,15,-2892,-987,
970,7,28,2023,12,52,38,765,2868,-494,3185,-41,-3199,-942,
971,7,28,2023,12,52,38,775,3110,-540,3132,-73,-3571,-888,
972,7,28,2023,12,52,38,785,3100,-467,3314,-88,-3966,-846,
973,7,28,2023,12,52,38,795,2864,-438,3639,-96,-4499,-788,
974,7,28,2023,12,52,38,805,2950,-872,3598,-73,-5172,-723,
975,7,28,2023,12,52,38,815,3373,-1213,3339,-16,-5826,-783,
976,7,28,2023,12,52,38,825,3450,-942,3526,73,-6374,-912,
977,7,28,2023,12,52,38,835,3175,-931,3820,199,-6999,-945,
978,7,28,2023,12,52,38,845,3763,-1213,3814,-1,-7838,-968,
979,7,28,2023,12,52,38,855,5119,-980,3780,-624,-8440,-959,
980,7,28,2023,12,52,38,865,6566,-2132,3511,-1421,-8585,-1065,
981,7,28,2023,12,52,38,875,7902,-2508,3813,-1921,-8135,-1396,
982,7,28,2023,12,52,38,885,8393,-2695,3809,-2863,-7563,-1617,
983,7,28,2023,12,52,38,895,9203,-2424,482,-3027,-7196,-2363,
984,7,28,2023,12,52,38,905,13190,-1394,-2001,-1608,-7916,-3276,
985,7,28,2023,12,52,38,915,15489,-1909,-1144,-396,-8016,-2937,
986,7,28,2023,12,52,38,925,19419,-2300,541,-24,-6900,-1986,
987,7,28,2023,12,52,38,935,17044,-1781,2923,228,-4126,-1359,
988,7,28,2023,12,52,38,945,11395,-165,2918,-702,-1618,-1049,
989,7,28,2023,12,52,38,955,8134,-1335,2967,-2618,-1682,-1462,
990,7,28,2023,12,52,38,965,6674,-3055,3412,-3527,-2311,-2300,
991,7,28,2023,12,52,38,975,6462,-3555,4115,-3039,-2517,-3235,
992,7,28,2023,12,52,38,985,5888,-3464,4804,-2169,-1825,-3654,
993,7,28,2023,12,52,38,995,4504,-3008,5117,-1564,-567,-3481,
994,7,28,2023,12,52,39,5,2777,-2738,5064,-1359,679,-2934,
995,7,28,2023,12,52,39,15,1115,-2607,4606,-1178,1639,-2277,
996,7,28,2023,12,52,39,25,-490,-2717,3941,-721,2428,-1608,
997,7,28,2023,12,52,39,35,-1399,-2299,3494,10,3077,-1028,
998,7,28,2023,12,52,39,45,-1882,-1511,3337,501,3716,-384,
999,7,28,2023,12,52,39,55,-2126,-858,3089,302,4324,302,
1000,7,28,2023,12,52,39,65,-2801,-1121,2463,-216,4900,914,
1001,7,28,2023,12,52,39,75,-3332,-1421,1887,-301,5284,1144,
1002,7,28,2023,12,52,39,85,-3132,-1044,1571,-113,5528,1139,
1003,7,28,2023,12,52,39,95,-2844,-745,1468,-147,5803,1259,
1004,7,28,2023,12,52,39,105,-2534,-759,1247,-439,6143,1641,
1005,7,28,2023,12,52,39,115,-2493,-859,908,-642,6501,2208,
1006,7,28,2023,12,52,39,125,-2390,-778,664,-678,6688,2804,
1007,7,28,2023,12,52,39,135,-1713,-642,527,-719,6716,3395,
1008,7,28,2023,12,52,39,145,-1400,-575,243,-725,6768,3998,
1009,7,28,2023,12,52,39,155,-1034,-671,33,-615,6670,4471,
1010,7,28,2023,12,52,39,165,-154,-387,71,-424,6422,4912,
1011,7,28,2023,12,52,39,175,607,-276,-40,-366,6234,5464,
1012,7,28,2023,12,52,39,185,1217,-163,-287,-276,6144,5948,
1013,7,28,2023,12,52,39,195,1910,230,-571,-122,6059,6201,
1014,7,28,2023,12,52,39,205,2740,512,-930,-102,5948,6123,
1015,7,28,2023,12,52,39,215,3696,702,-1428,-146,5785,5724,
1016,7,28,2023,12,52,39,225,4857,996,-1949,-176,5485,5040,
1017,7,28,2023,12,52,39,235,6105,1181,-2448,-292,5016,4195,
1018,7,28,2023,12,52,39,245,7195,970,-2959,-324,4420,3346,
1019,7,28,2023,12,52,39,255,8096,1105,-3261,-123,3737,2499,
1020,7,28,2023,12,52,39,265,8683,1242,-3608,-50,2937,1806,
1021,7,28,2023,12,52,39,285,8643,1073,-4454,56,755,882,
1022,7,28,2023,12,52,39,295,7667,1265,-4666,64,-612,625,
1023,7,28,2023,12,52,39,305,8009,-1887,-5733,151,-2217,581,
1024,7,28,2023,12,52,39,315,16389,-4211,5,4844,-2827,-1377,
1025,7,28,2023,12,52,39,325,13262,6980,9925,8726,2672,-2407,
1026,7,28,2023,12,52,39,335,-1525,-977,6591,1366,6335,-1128,
1027,7,28,2023,12,52,39,345,1011,-316,6194,1162,5472,-727,
1028,7,28,2023,12,52,39,355,3311,-333,4942,1425,4569,-556,
1029,7,28,2023,12,52,39,365,2386,-647,4567,1533,3357,-452,
1030,7,28,2023,12,52,39,375,2136,-812,4133,1256,2351,-372,
1031,7,28,2023,12,52,39,385,2678,-1076,3150,1135,1725,-383,
1032,7,28,2023,12,52,39,395,2695,-1059,2597,1130,1644,-376,
1033,7,28,2023,12,52,39,405,3092,-461,2734,1270,2023,-397,
1034,7,28,2023,12,52,39,415,2650,268,3674,1122,2243,-252,
1035,7,28,2023,12,52,39,425,2071,-76,4201,639,1847,40,
1036,7,28,2023,12,52,39,435,2190,-752,3909,343,1274,247,
1037,7,28,2023,12,52,39,445,2516,-995,3464,253,955,241,
1038,7,28,2023,12,52,39,455,2399,-913,3243,257,904,142,
1039,7,28,2023,12,52,39,465,2224,-764,3377,257,934,82,
1040,7,28,2023,12,52,39,475,2391,-439,3772,200,856,90,
1041,7,28,2023,12,52,39,485,2396,-513,3840,60,621,183,
1042,7,28,2023,12,52,39,495,2148,-787,3580,-65,379,252,
1043,7,28,2023,12,52,39,505,2117,-935,3356,-99,240,224,
1044,7,28,2023,12,52,39,515,2413,-807,3438,-86,209,161,
1045,7,28,2023,12,52,39,525,2327,-753,3586,-104,181,144,
1046,7,28,2023,12,52,39,535,1930,-849,3662,-158,41,159,
1047,7,28,2023,12,52,39,545,1968,-982,3531,-196,-166,142,
1048,7,28,2023,12,52,39,555,2331,-856,3501,-193,-292,93,
1049,7,28,2023,12,52,39,565,2333,-717,3536,-203,-366,67,
1050,7,28,2023,12,52,39,575,2017,-740,3521,-254,-468,84,
1051,7,28,2023,12,52,39,585,1974,-855,3546,-319,-599,103,
1052,7,28,2023,12,52,39,595,2289,-940,3524,-353,-741,98,
1053,7,28,2023,12,52,39,605,2271,-993,3422,-339,-819,60,
1054,7,28,2023,12,52,39,615,2084,-943,3364,-297,-876,9,
1055,7,28,2023,12,52,39,625,2218,-902,3290,-245,-934,-23,
1056,7,28,2023,12,52,39,635,2420,-1052,3231,-175,-940,-62,
1057,7,28,2023,12,52,39,645,2401,-906,3285,-96,-914,-110,
1058,7,28,2023,12,52,39,655,2230,-907,3200,-153,-935,-124,
1059,7,28,2023,12,52,39,665,2309,-1110,3025,-215,-967,-149,
1060,7,28,2023,12,52,39,675,2487,-1074,3034,-148,-888,-209,
1061,7,28,2023,12,52,39,685,2409,-1009,3196,-80,-799,-263,
1062,7,28,2023,12,52,39,695,2234,-1031,3232,-5,-808,-315,
1063,7,28,2023,12,52,39,705,2362,-1033,3174,43,-867,-377,
1064,7,28,2023,12,52,39,715,2760,-884,3055,64,-886,-421,
1065,7,28,2023,12,52,39,725,2628,-856,3001,73,-834,-418,
1066,7,28,2023,12,52,39,735,2402,-817,3042,72,-790,-407,
1067,7,28,2023,12,52,39,745,2397,-844,3196,101,-808,-385,
1068,7,28,2023,12,52,39,755,2613,-951,3311,182,-874,-376,
1069,7,28,2023,12,52,39,765,2594,-1007,3336,218,-959,-409,
1070,7,28,2023,12,52,39,775,2391,-1102,3246,191,-1072,-491,
1071,7,28,2023,12,52,39,785,2554,-1009,3182,156,-1175,-613,
1072,7,28,2023,12,52,39,795,2789,-669,3225,149,-1258,-680,
1073,7,28,2023,12,52,39,805,2605,-513,3308,125,-1364,-626,
1074,7,28,2023,12,52,39,815,2423,-615,3367,76,-1540,-536,
1075,7,28,2023,12,52,39,825,2627,-744,3396,23,-1752,-492,
1076,7,28,2023,12,52,39,835,2800,-843,3379,-31,-1962,-516,
1077,7,28,2023,12,52,39,845,2630,-828,3485,-106,-2209,-571,
1078,7,28,2023,12,52,39,855,2448,-818,3598,-223,-2536,-636,
1079,7,28,2023,12,52,39,865,2566,-841,3712,-345,-2931,-722,
1080,7,28,2023,12,52,39,875,2825,-802,3773,-346,-3357,-843,
1081,7,28,2023,12,52,39,885,2572,-478,3992,-278,-3817,-932,
1082,7,28,2023,12,52,39,895,2225,-170,4441,-263,-4492,-890,
1083,7,28,2023,12,52,39,905,2429,-408,4436,-218,-5443,-777,
1084,7,28,2023,12,52,39,915,2797,-807,4046,-126,-6464,-816,
1085,7,28,2023,12,52,39,925,2534,-1025,4110,-44,-7490,-1045,
1086,7,28,2023,12,52,39,935,2531,-1405,4415,-20,-8501,-1251,
1087,7,28,2023,12,52,39,945,3072,-2155,4090,-50,-9274,-1492,
1088,7,28,2023,12,52,39,955,4283,-1890,3781,-6,-9986,-1814,
1089,7,28,2023,12,52,39,965,5915,-2312,4061,-518,-10402,-2110,
1090,7,28,2023,12,52,39,975,6300,-4076,3577,-697,-10058,-2649,
1091,7,28,2023,12,52,39,985,8158,-174,3611,-147,-9821,-3498,
1092,7,28,2023,12,52,39,995,11529,-1518,1670,-2340,-9485,-3534,
1093,7,28,2023,12,52,40,5,13324,-494,-1687,-2669,-8694,-4471,
1094,7,28,2023,12,52,40,15,15028,2258,-1398,-2481,-8055,-5413,
1095,7,28,2023,12,52,40,25,19552,925,-668,-4670,-6634,-4988,
1096,7,28,2023,12,52,40,35,18474,-2455,370,-5228,-3700,-5064,
1097,7,28,2023,12,52,40,45,12200,-364,1058,-3578,-981,-5067,
1098,7,28,2023,12,52,40,55,9436,336,2469,-2923,-1795,-4331,
1099,7,28,2023,12,52,40,65,8688,-1478,3213,-3127,-3275,-3096,
1100,7,28,2023,12,52,40,75,8049,-2849,4072,-2201,-3748,-2295,
1101,7,28,2023,12,52,40,85,6634,-2911,4603,-457,-3177,-1823,
1102,7,28,2023,12,52,40,95,4343,-2146,4853,982,-2310,-1384,
1103,7,28,2023,12,52,40,105,2289,-1219,5104,1406,-1703,-903,
1104,7,28,2023,12,52,40,115,1564,-981,5431,780,-1154,-425,
1105,7,28,2023,12,52,40,125,1674,-1603,5458,-184,-30,18,
1106,7,28,2023,12,52,40,145,-1814,-2278,4264,-104,3390,340,
1107,7,28,2023,12,52,40,155,-3425,-1635,3574,164,4399,28,
1108,7,28,2023,12,52,40,165,-3873,-1432,3017,-164,4884,-310,
1109,7,28,2023,12,52,40,175,-3535,-1967,2486,-691,5289,-362,
1110,7,28,2023,12,52,40,185,-3405,-2580,2097,-787,5830,-65,
1111,7,28,2023,12,52,40,195,-3382,-2368,1776,-608,6368,535,
1112,7,28,2023,12,52,40,205,-3740,-1965,1274,-698,6705,1445,
1113,7,28,2023,12,52,40,215,-4020,-1964,798,-1032,6650,2413,
1114,7,28,2023,12,52,40,225,-3564,-1924,670,-1220,6334,3277,
1115,7,28,2023,12,52,40,235,-2657,-1731,788,-1297,6159,4116,
1116,7,28,2023,12,52,40,245,-2270,-1537,677,-1355,6326,4944,
1117,7,28,2023,12,52,40,255,-2499,-1138,416,-1278,6470,5605,
1118,7,28,2023,12,52,40,265,-1917,-959,357,-1186,6301,5969,
1119,7,28,2023,12,52,40,275,-691,-718,461,-1007,6230,6163,
1120,7,28,2023,12,52,40,285,150,52,433,-804,6428,6412,
1121,7,28,2023,12,52,40,295,943,540,-137,-862,6548,6665,
1122,7,28,2023,12,52,40,305,1914,916,-1063,-762,6389,6723,
1123,7,28,2023,12,52,40,315,3083,1724,-1993,-466,5773,6521,
1124,7,28,2023,12,52,40,325,4428,2025,-2934,-343,4678,6079,
1125,7,28,2023,12,52,40,335,5872,1896,-3679,-149,3288,5319,
1126,7,28,2023,12,52,40,345,7864,2211,-4004,149,1811,4408,
1127,7,28,2023,12,52,40,355,9965,2211,-4762,132,477,3890,
1128,7,28,2023,12,52,40,365,10844,1897,-5763,320,-691,3622,
1129,7,28,2023,12,52,40,375,11333,2352,-5867,814,-1694,3048,
1130,7,28,2023,12,52,40,385,14036,1554,-6991,949,-2169,2268,
1131,7,28,2023,12,52,40,395,19895,-476,-7343,2424,-2050,-58,
1132,7,28,2023,12,52,40,405,19111,-4322,-953,5370,876,-1269,
1133,7,28,2023,12,52,40,415,-2713,3154,6554,6570,3902,422,
1134,7,28,2023,12,52,40,425,77,1662,9241,3049,4530,388,
1135,7,28,2023,12,52,40,435,3972,-2185,3015,-202,5884,838,
1136,7,28,2023,12,52,40,445,4590,-1162,2734,756,5689,1034,
1137,7,28,2023,12,52,40,455,1718,-1029,4318,778,5095,715,
1138,7,28,2023,12,52,40,465,2260,-882,4514,662,4520,581,
1139,7,28,2023,12,52,40,475,1964,-2411,4080,740,3829,444,
1140,7,28,2023,12,52,40,485,1932,-1991,4272,1022,3095,-3,
1141,7,28,2023,12,52,40,495,2375,-1644,3999,1075,2461,-411,
1142,7,28,2023,12,52,40,505,2564,-499,3738,1115,1981,-573,
1143,7,28,2023,12,52,40,515,2675,227,3447,936,1600,-387,
1144,7,28,2023,12,52,40,525,2670,-302,3193,597,1297,-9,
1145,7,28,2023,12,52,40,535,2758,-1251,3023,427,1215,202,
1146,7,28,2023,12,52,40,545,2417,-1421,3238,443,1310,135,
1147,7,28,2023,12,52,40,555,2056,-1136,3508,361,1256,-62,
1148,7,28,2023,12,52,40,565,2413,-803,3533,285,1040,-131,
1149,7,28,2023,12,52,40,575,2689,-811,3531,219,862,-70,
1150,7,28,2023,12,52,40,585,2470,-948,3468,144,742,-8,
1151,7,28,2023,12,52,40,595,2125,-926,3439,98,617,4,
1152,7,28,2023,12,52,40,605,2328,-821,3527,37,460,30,
1153,7,28,2023,12,52,40,615,2697,-872,3608,-34,317,84,
1154,7,28,2023,12,52,40,625,2275,-878,3650,-84,198,114,
1155,7,28,2023,12,52,40,635,1749,-973,3664,-157,-38,140,
1156,7,28,2023,12,52,40,645,2122,-1024,3599,-203,-320,144,
1157,7,28,2023,12,52,40,655,2464,-1019,3555,-208,-498,150,
1158,7,28,2023,12,52,40,665,2259,-907,3558,-219,-642,162,
1159,7,28,2023,12,52,40,675,1986,-839,3452,-274,-858,205,
1160,7,28,2023,12,52,40,685,2369,-898,3331,-336,-1051,269,
1161,7,28,2023,12,52,40,695,2659,-972,3241,-418,-1093,292,
1162,7,28,2023,12,52,40,705,2243,-1068,3275,-470,-1098,294,
1163,7,28,2023,12,52,40,715,1923,-1055,3302,-456,-1186,284,
1164,7,28,2023,12,52,40,725,2276,-1102,3256,-478,-1307,288,
1165,7,28,2023,12,52,40,735,2628,-1136,3169,-505,-1364,297,
1166,7,28,2023,12,52,40,745,2459,-1098,3000,-483,-1375,300,
1167,7,28,2023,12,52,40,755,2244,-1234,2776,-480,-1332,299,
1168,7,28,2023,12,52,40,765,2560,-1387,2684,-443,-1203,223,
1169,7,28,2023,12,52,40,775,2758,-1333,2701,-357,-944,126,
1170,7,28,2023,12,52,40,785,2356,-1367,2810,-288,-735,66,
1171,7,28,2023,12,52,40,795,2251,-1490,2828,-229,-672,4,
1172,7,28,2023,12,52,40,805,2633,-1505,2716,-105,-592,-97,
1173,7,28,2023,12,52,40,815,2920,-1412,2632,18,-420,-208,
1174,7,28,2023,12,52,40,825,2509,-1460,2611,140,-208,-318,
1175,7,28,2023,12,52,40,835,2243,-1400,2787,274,-69,-442,
1176,7,28,2023,12,52,40,845,2605,-1341,2833,354,-25,-526,
1177,7,28,2023,12,52,40,855,2484,-1018,3199,441,28,-663,
1178,7,28,2023,12,52,40,865,2307,-1030,3260,344,-32,-687,
1179,7,28,2023,12,52,40,875,2613,-958,3354,275,-191,-711,
1180,7,28,2023,12,52,40,885,2826,-757,3356,212,-357,-688,
1181,7,28,2023,12,52,40,895,2382,-758,3523,162,-556,-594,
1182,7,28,2023,12,52,40,905,2274,-1002,3625,97,-901,-526,
1183,7,28,2023,12,52,40,915,2616,-1219,3556,59,-1276,-577,
1184,7,28,2023,12,52,40,925,2749,-900,3664,25,-1609,-660,
1185,7,28,2023,12,52,40,935,2507,-840,3862,-72,-2063,-643,
1186,7,28,2023,12,52,40,945,2433,-1025,4002,-204,-2651,-623,
1187,7,28,2023,12,52,40,955,2722,-825,4099,-314,-3301,-657,
1188,7,28,2023,12,52,40,965,2441,-278,4475,-319,-4018,-619,
1189,7,28,2023,12,52,40,975,2019,-624,4583,-454,-4999,-475,
1190,7,28,2023,12,52,40,985,2121,-1146,4443,-453,-6052,-521,
1191,7,28,2023,12,52,41,5,2208,-1187,4542,-226,-8133,-966,
1192,7,28,2023,12,52,41,15,2237,-1367,4483,-216,-9187,-1090,
1193,7,28,2023,12,52,41,25,3340,-1494,4519,-659,-10155,-1223,
1194,7,28,2023,12,52,41,35,4667,-2852,4864,-1325,-10694,-1535,
1195,7,28,2023,12,52,41,45,4963,-3197,4476,-1561,-10597,-2156,
1196,7,28,2023,12,52,41,55,8705,-1698,4718,-1929,-10578,-2612,
1197,7,28,2023,12,52,41,65,10920,-3095,3619,-3461,-9563,-2570,
1198,7,28,2023,12,52,41,75,11814,-2065,1046,-4462,-8212,-3086,
1199,7,28,2023,12,52,41,85,14021,139,-191,-5023,-7563,-3888,
1200,7,28,2023,12,52,41,95,14158,-2286,-831,-6384,-6649,-3886,
1201,7,28,2023,12,52,41,105,18994,-5448,250,-5171,-5023,-3866,
1202,7,28,2023,12,52,41,115,12208,-3524,1259,-2064,-1325,-3142,
1203,7,28,2023,12,52,41,125,6913,-1028,1676,-201,-911,-3123,
1204,7,28,2023,12,52,41,135,6653,-840,2567,-100,-2797,-3590,
1205,7,28,2023,12,52,41,145,7545,-1709,3558,-644,-3840,-3494,
1206,7,28,2023,12,52,41,155,7153,-3025,4255,-807,-3407,-2943,
1207,7,28,2023,12,52,41,165,5734,-3929,4564,-55,-2202,-2515,
1208,7,28,2023,12,52,41,175,4173,-3603,4816,1279,-898,-2344,
1209,7,28,2023,12,52,41,185,3299,-2719,5133,2271,194,-2165,
1210,7,28,2023,12,52,41,195,2953,-2262,5203,2443,1356,-1725,
1211,7,28,2023,12,52,41,205,1468,-2233,4809,2282,2899,-1113,
1212,7,28,2023,12,52,41,215,-733,-1750,4301,2128,4343,-706,
1213,7,28,2023,12,52,41,225,-1761,-1066,3869,1527,5278,-585,
1214,7,28,2023,12,52,41,235,-2312,-1282,3093,523,6025,-522,
1215,7,28,2023,12,52,41,245,-3209,-1826,2338,-34,6614,-516,
1216,7,28,2023,12,52,41,255,-3377,-1771,1850,-116,6892,-536,
1217,7,28,2023,12,52,41,265,-3601,-1640,1390,-153,7064,-324,
1218,7,28,2023,12,52,41,275,-4058,-1697,931,-319,7036,58,
1219,7,28,2023,12,52,41,285,-3790,-1887,781,-522,6705,554,
1220,7,28,2023,12,52,41,295,-2820,-1918,833,-710,6487,1274,
1221,7,28,2023,12,52,41,305,-2687,-1870,530,-913,6661,2264,
1222,7,28,2023,12,52,41,315,-2934,-1691,139,-1057,6747,3246,
1223,7,28,2023,12,52,41,325,-2438,-1587,36,-1160,6555,4080,
1224,7,28,2023,12,52,41,335,-1498,-1716,87,-1193,6477,4775,
1225,7,28,2023,12,52,41,345,-916,-1320,69,-1116,6696,5429,
1226,7,28,2023,12,52,41,355,-203,-933,-360,-1210,6861,6091,
1227,7,28,2023,12,52,41,365,799,-788,-1129,-1270,6726,6638,
1228,7,28,2023,12,52,41,375,2199,6,-1764,-1009,6241,7108,
1229,7,28,2023,12,52,41,385,3751,937,-2347,-889,5497,7622,
1230,7,28,2023,12,52,41,395,5378,1249,-3147,-964,4551,7856,
1231,7,28,2023,12,52,41,405,6983,1741,-4070,-739,3531,7420,
1232,7,28,2023,12,52,41,415,8112,2609,-5040,-449,2389,6295,
1233,7,28,2023,12,52,41,425,8604,3010,-6345,-432,910,4734,
1234,7,28,2023,12,52,41,435,8720,2750,-7003,-282,-1093,2901,
1235,7,28,2023,12,52,41,445,9998,2917,-6177,-71,-3040,1275,
1236,7,28,2023,12,52,41,455,11693,521,-7437,-531,-3886,844,
1237,7,28,2023,12,52,41,465,20318,-6702,-8294,3130,-3957,-825,
1238,7,28,2023,12,52,41,475,22514,513,3274,10526,224,-2853,
1239,7,28,2023,12,52,41,485,-3302,4647,11558,6296,6114,-1272,
1240,7,28,2023,12,52,41,495,-1772,-2455,8934,1503,6360,-1288,
1241,7,28,2023,12,52,41,505,5596,1417,6155,1478,5463,-923,
1242,7,28,2023,12,52,41,515,2490,-70,5109,956,3751,-531,
1243,7,28,2023,12,52,41,525,2066,1262,5019,675,1962,-94,
1244,7,28,2023,12,52,41,535,2692,-520,3714,122,954,468,
1245,7,28,2023,12,52,41,545,2798,-2424,2491,-91,568,603,
1246,7,28,2023,12,52,41,555,2797,-2716,2066,253,862,148,
1247,7,28,2023,12,52,41,565,2718,-1161,2494,756,1455,-285,
1248,7,28,2023,12,52,41,575,2839,-350,2932,892,1840,-255,
1249,7,28,2023,12,52,41,585,2451,-547,3319,718,1891,-68,
1250,7,28,2023,12,52,41,595,2546,-842,3359,429,1735,-64,
1251,7,28,2023,12,52,41,605,2523,-1347,3371,288,1568,-65,
1252,7,28,2023,12,52,41,615,2498,-1337,3401,345,1462,-165,
1253,7,28,2023,12,52,41,625,2540,-797,3519,443,1342,-240,
1254,7,28,2023,12,52,41,635,2435,-554,3607,422,1136,-128,
1255,7,28,2023,12,52,41,645,2360,-682,3671,317,894,25,
1256,7,28,2023,12,52,41,655,2369,-771,3654,234,641,110,
1257,7,28,2023,12,52,41,665,2334,-766,3595,187,414,173,
1258,7,28,2023,12,52,41,675,2223,-826,3552,130,210,227,
1259,7,28,2023,12,52,41,685,2211,-914,3495,64,38,238,
1260,7,28,2023,12,52,41,695,2259,-1094,3386,-2,-74,185,
1261,7,28,2023,12,52,41,705,2440,-1001,3225,-95,-103,50,
1262,7,28,2023,12,52,41,715,2444,-844,3254,-135,-77,15,
1263,7,28,2023,12,52,41,725,2419,-865,3300,-180,-88,62,
1264,7,28,2023,12,52,41,735,2420,-874,3319,-206,-123,111,
1265,7,28,2023,12,52,41,745,2345,-928,3302,-196,-172,160,
1266,7,28,2023,12,52,41,755,2317,-963,3265,-150,-208,188,
1267,7,28,2023,12,52,41,765,2335,-1021,3215,-83,-219,199,
1268,7,28,2023,12,52,41,775,2329,-1064,3213,-19,-217,181,
1269,7,28,2023,12,52,41,785,2229,-1019,3207,13,-209,151,
1270,7,28,2023,12,52,41,795,2120,-1069,3227,4,-218,133,
1271,7,28,2023,12,52,41,805,2076,-1256,3221,-6,-234,104,
1272,7,28,2023,12,52,41,815,2253,-1281,3096,22,-235,47,
1273,7,28,2023,12,52,41,825,2281,-1228,2956,71,-166,-27,
1274,7,28,2023,12,52,41,835,2327,-1115,2918,125,-50,-88,
1275,7,28,2023,12,52,41,845,2326,-1144,2978,155,63,-122,
1276,7,28,2023,12,52,41,865,2143,-1302,3234,234,192,-212,
1277,7,28,2023,12,52,41,875,2189,-1361,3222,341,203,-335,
1278,7,28,2023,12,52,41,885,2234,-1106,3238,469,238,-488,
1279,7,28,2023,12,52,41,895,2296,-709,3367,506,237,-568,
1280,7,28,2023,12,52,41,905,2358,-460,3465,388,127,-515,
1281,7,28,2023,12,52,41,915,2163,-572,3569,203,-39,-382,
1282,7,28,2023,12,52,41,925,2303,-552,3622,36,-242,-278,
1283,7,28,2023,12,52,41,935,2317,-736,3551,-119,-459,-186,
1284,7,28,2023,12,52,41,945,1995,-1127,3560,-209,-667,-157,
1285,7,28,2023,12,52,41,955,2221,-1092,3625,-127,-915,-249,
1286,7,28,2023,12,52,41,965,2497,-773,3612,-77,-1186,-327,
1287,7,28,2023,12,52,41,975,2370,-727,3771,-199,-1480,-312,
1288,7,28,2023,12,52,41,985,2433,-1181,3729,-398,-1839,-299,
1289,7,28,2023,12,52,41,995,2442,-1046,3904,-230,-2219,-378,
1290,7,28,2023,12,52,42,5,2499,-817,4074,-198,-2695,-415,
1291,7,28,2023,12,52,42,15,2480,-1201,4257,-423,-3284,-427,
1292,7,28,2023,12,52,42,25,2431,-798,4467,-365,-3958,-534,
1293,7,28,2023,12,52,42,35,2274,-563,4673,-601,-4833,-527,
1294,7,28,2023,12,52,42,45,1885,-611,4817,-642,-5901,-510,
1295,7,28,2023,12,52,42,55,1888,-704,4665,-548,-7099,-594,
1296,7,28,2023,12,52,42,65,1789,-1465,4714,-806,-8292,-936,
1297,7,28,2023,12,52,42,75,2161,-1579,4574,-716,-9362,-1278,
1298,7,28,2023,12,52,42,85,2409,-1733,4189,-525,-10184,-1429,
1299,7,28,2023,12,52,42,95,3876,-1670,4381,-875,-10864,-1573,
1300,7,28,2023,12,52,42,105,5314,-3369,4422,-1574,-11041,-1998,
1301,7,28,2023,12,52,42,115,7590,-4064,3902,-1479,-10740,-2970,
1302,7,28,2023,12,52,42,125,11305,-1642,3091,-1337,-9950,-3865,
1303,7,28,2023,12,52,42,135,13822,-71,-192,-2772,-9482,-4217,
1304,7,28,2023,12,52,42,145,15031,-1696,-1024,-3911,-9109,-4516,
1305,7,28,2023,12,52,42,155,16886,-2303,-246,-3463,-8165,-4922,
1306,7,28,2023,12,52,42,165,20875,-3663,1749,-2428,-6301,-5210,
1307,7,28,2023,12,52,42,175,13078,-2730,2612,-1105,-2646,-5141,
1308,7,28,2023,12,52,42,185,9347,-723,3813,-394,-2094,-5504,
1309,7,28,2023,12,52,42,195,8867,-77,4779,-1256,-2933,-5774,
1310,7,28,2023,12,52,42,205,8343,-1469,5347,-2718,-3151,-5648,
1311,7,28,2023,12,52,42,215,7215,-3346,5775,-3291,-2520,-5510,
1312,7,28,2023,12,52,42,225,5967,-4309,5973,-2540,-1276,-5421,
1313,7,28,2023,12,52,42,235,3943,-4293,5818,-1093,333,-4975,
1314,7,28,2023,12,52,42,245,1270,-3823,5203,279,1688,-4144,
1315,7,28,2023,12,52,42,255,-812,-3053,4410,1151,2356,-3058,
1316,7,28,2023,12,52,42,265,-1830,-2638,3765,1439,2503,-1774,
1317,7,28,2023,12,52,42,275,-2341,-2574,3171,1357,2657,-418,
1318,7,28,2023,12,52,42,285,-3096,-2488,2655,1245,2910,774,
1319,7,28,2023,12,52,42,295,-3275,-2332,2385,993,3075,1630,
1320,7,28,2023,12,52,42,305,-3014,-2325,2042,619,3359,2307,
1321,7,28,2023,12,52,42,315,-3465,-2247,1696,428,3829,2897,
1322,7,28,2023,12,52,42,325,-3878,-1975,1348,298,4154,3290,
1323,7,28,2023,12,52,42,335,-3563,-1856,1332,73,4308,3514,
1324,7,28,2023,12,52,42,345,-2898,-1698,1236,-262,4680,3811,
1325,7,28,2023,12,52,42,355,-3290,-1656,807,-535,5265,4254,
1326,7,28,2023,12,52,42,365,-3510,-1589,414,-643,5535,4571,
1327,7,28,2023,12,52,42,375,-2758,-1451,450,-636,5473,4793,
1328,7,28,2023,12,52,42,385,-1901,-1437,590,-671,5491,5165,
1329,7,28,2023,12,52,42,395,-1324,-1609,544,-766,5731,5644,
1330,7,28,2023,12,52,42,405,-675,-1385,476,-795,6032,6159,
1331,7,28,2023,12,52,42,415,-338,-841,231,-869,6201,6810,
1332,7,28,2023,12,52,42,425,176,-391,-192,-1105,6092,7349,
1333,7,28,2023,12,52,42,435,1425,15,-787,-1321,5776,7506,
1334,7,28,2023,12,52,42,445,2779,355,-1362,-1408,5439,7237,
1335,7,28,2023,12,52,42,455,4147,608,-1741,-1378,5019,6640,
1336,7,28,2023,12,52,42,465,5879,822,-2084,-1231,4539,5828,
1337,7,28,2023,12,52,42,475,7490,1665,-2700,-1039,4089,4886,
1338,7,28,2023,12,52,42,485,8631,2242,-3741,-1153,3475,3716,
1339,7,28,2023,12,52,42,495,9582,2666,-4737,-1284,2574,2227,
1340,7,28,2023,12,52,42,505,9806,3124,-5623,-1371,1406,799,
1341,7,28,2023,12,52,42,515,8650,3017,-6546,-1551,-154,-97,
1342,7,28,2023,12,52,42,525,9297,1912,-6424,-1577,-2175,-374,
1343,7,28,2023,12,52,42,535,14945,-1135,-6688,-40,-3148,-791,
1344,7,28,2023,12,52,42,545,23222,-2222,-1557,5523,-698,-3491,
1345,7,28,2023,12,52,42,555,6168,2861,4554,7948,4811,-2758,
1346,7,28,2023,12,52,42,565,-1028,561,10395,4997,5232,-1498,
1347,7,28,2023,12,52,42,575,2837,633,7952,1841,5720,-1145,
1348,7,28,2023,12,52,42,585,4371,-1566,4053,1020,5425,-884,
1349,7,28,2023,12,52,42,595,1898,692,5165,1660,3900,-644,
1350,7,28,2023,12,52,42,605,2828,745,4653,1188,2773,-294,
1351,7,28,2023,12,52,42,615,2703,-455,3924,825,1838,226,
1352,7,28,2023,12,52,42,625,2575,-1787,3021,529,1334,318,
1353,7,28,2023,12,52,42,635,2774,-1811,2528,601,1404,26,
1354,7,28,2023,12,52,42,645,2850,-918,2683,807,1735,-182,
1355,7,28,2023,12,52,42,655,2756,-756,3023,906,1980,-130,
1356,7,28,2023,12,52,42,665,2642,-651,3362,895,2008,-44,
1357,7,28,2023,12,52,42,675,2567,-669,3472,724,1892,13,
1358,7,28,2023,12,52,42,685,2468,-915,3406,588,1716,58,
1359,7,28,2023,12,52,42,695,2360,-1074,3552,540,1546,8,
1360,7,28,2023,12,52,42,705,2239,-925,3738,522,1302,-81,
1361,7,28,2023,12,52,42,725,2347,-778,3584,350,678,-124,
1362,7,28,2023,12,52,42,735,2340,-598,3632,261,475,-90,
1363,7,28,2023,12,52,42,745,2257,-728,3593,121,263,-33,
1364,7,28,2023,12,52,42,755,2351,-810,3480,16,94,-14,
1365,7,28,2023,12,52,42,765,2351,-835,3385,-49,-15,-16,
1366,7,28,2023,12,52,42,775,2377,-902,3304,-74,-77,-9,
1367,7,28,2023,12,52,42,785,2396,-875,3289,-74,-92,-7,
1368,7,28,2023,12,52,42,795,2392,-849,3301,-80,-109,2,
1369,7,28,2023,12,52,42,805,2371,-885,3280,-98,-153,35,
1370,7,28,2023,12,52,42,815,2329,-902,3280,-102,-188,55,
1371,7,28,2023,12,52,42,825,2339,-940,3259,-98,-225,65,
1372,7,28,2023,12,52,42,835,2337,-981,3228,-85,-251,59,
1373,7,28,2023,12,52,42,845,2330,-1003,3221,-77,-266,36,
1374,7,28,2023,12,52,42,855,2235,-937,3332,-51,-295,5,
1375,7,28,2023,12,52,42,865,2219,-824,3478,-71,-393,6,
1376,7,28,2023,12,52,42,875,2279,-962,3520,-159,-559,26,
1377,7,28,2023,12,52,42,885,2329,-924,3439,-132,-745,1,
1378,7,28,2023,12,52,42,895,2415,-826,3315,-108,-871,-13,
1379,7,28,2023,12,52,42,905,2471,-567,3326,-180,-927,24,
1380,7,28,2023,12,52,42,915,2451,-655,3254,-370,-1006,123,
1381,7,28,2023,12,52,42,925,2410,-872,3245,-496,-1099,212,
1382,7,28,2023,12,52,42,935,2431,-944,3224,-497,-1167,231,
1383,7,28,2023,12,52,42,945,2441,-1042,3097,-468,-1226,213,
1384,7,28,2023,12,52,42,955,2532,-1127,2947,-408,-1246,180,
1385,7,28,2023,12,52,42,965,2478,-1353,2830,-319,-1209,126,
1386,7,28,2023,12,52,42,975,2562,-1337,2818,-202,-1111,5,
1387,7,28,2023,12,52,42,985,2551,-1381,2704,-96,-978,-127,
1388,7,28,2023,12,52,42,995,2464,-1459,2757,51,-838,-279,
1389,7,28,2023,12,52,43,5,2428,-1403,2885,209,-708,-462,
1390,7,28,2023,12,52,43,15,2523,-1209,3022,354,-656,-622,
1391,7,28,2023,12,52,43,25,2748,-960,3055,357,-647,-714,
1392,7,28,2023,12,52,43,35,2685,-868,3105,331,-676,-723,
1393,7,28,2023,12,52,43,45,2586,-837,3155,306,-753,-706,
1394,7,28,2023,12,52,43,55,2699,-650,3265,241,-862,-684,
1395,7,28,2023,12,52,43,65,2737,-718,3311,194,-1030,-622,
1396,7,28,2023,12,52,43,75,2692,-749,3375,135,-1235,-578,
1397,7,28,2023,12,52,43,85,2744,-878,3381,31,-1483,-553,
1398,7,28,2023,12,52,43,95,2704,-857,3400,70,-1736,-551,
1399,7,28,2023,12,52,43,105,2738,-923,3368,26,-2008,-573,
1400,7,28,2023,12,52,43,115,2656,-871,3527,-56,-2304,-623,
1401,7,28,2023,12,52,43,125,2692,-626,3480,-151,-2700,-668,
1402,7,28,2023,12,52,43,135,2637,-356,3610,-273,-3112,-624,
1403,7,28,2023,12,52,43,145,2693,-531,3561,-398,-3573,-512,
1404,7,28,2023,12,52,43,155,2752,-682,3527,-518,-4052,-471,
1405,7,28,2023,12,52,43,165,2816,-599,3639,-426,-4534,-475,
1406,7,28,2023,12,52,43,175,2814,-620,3693,-202,-5070,-435,
1407,7,28,2023,12,52,43,185,2707,-924,3753,-112,-5701,-439,
1408,7,28,2023,12,52,43,195,2767,-1163,3734,-135,-6459,-558,
1409,7,28,2023,12,52,43,205,3041,-1176,3510,-334,-7207,-730,
1410,7,28,2023,12,52,43,215,3648,-1416,3507,-524,-7855,-891,
1411,7,28,2023,12,52,43,225,3934,-2085,3567,-380,-8120,-1094,
1412,7,28,2023,12,52,43,235,4196,-852,3481,-245,-8207,-1350,
1413,7,28,2023,12,52,43,245,5100,-1081,2534,-933,-8370,-1435,
1414,7,28,2023,12,52,43,255,7672,-1443,2766,-1061,-8192,-1666,
1415,7,28,2023,12,52,43,265,7396,-3026,1639,-1664,-7060,-1649,
1416,7,28,2023,12,52,43,275,7429,-3796,-253,-1024,-6062,-2559,
1417,7,28,2023,12,52,43,285,9235,1635,-2093,336,-6207,-3792,
1418,7,28,2023,12,52,43,295,12393,2198,-2244,-1770,-6637,-4072,
1419,7,28,2023,12,52,43,305,11301,947,-2276,-4630,-5833,-4600,
1420,7,28,2023,12,52,43,315,14598,-914,-981,-6114,-5252,-5735,
1421,7,28,2023,12,52,43,325,13398,-1611,534,-5998,-3232,-6336,
1422,7,28,2023,12,52,43,335,11247,-1436,79,-5526,-1437,-6586,
1423,7,28,2023,12,52,43,345,8677,-1909,707,-4556,-738,-7108,
1424,7,28,2023,12,52,43,355,5722,-1914,2049,-3248,-797,-7400,
1425,7,28,2023,12,52,43,365,3860,-1993,3306,-2254,-1496,-7246,
1426,7,28,2023,12,52,43,375,3300,-2515,4118,-1749,-2074,-6528,
1427,7,28,2023,12,52,43,385,3174,-3384,4612,-1262,-1957,-5339,
1428,7,28,2023,12,52,43,395,2375,-4040,4875,-472,-995,-3882,
1429,7,28,2023,12,52,43,405,566,-3934,4842,537,415,-2347,
1430,7,28,2023,12,52,43,415,-1499,-3142,4611,1215,1619,-879,
1431,7,28,2023,12,52,43,425,-2889,-2402,4418,1177,2260,538,
1432,7,28,2023,12,52,43,435,-3104,-2299,4258,753,2627,1944,
1433,7,28,2023,12,52,43,445,-2913,-2284,3970,513,3226,3241,
1434,7,28,2023,12,52,43,455,-3644,-1955,3525,676,4081,4248,
1435,7,28,2023,12,52,43,465,-4638,-941,3118,1013,4616,4801,
1436,7,28,2023,12,52,43,475,-4834,351,2967,888,4672,4991,
1437,7,28,2023,12,52,43,485,-3876,417,3051,65,4650,4973,
1438,7,28,2023,12,52,43,495,-2430,-313,3022,-569,5071,4827,
1439,7,28,2023,12,52,43,505,-1863,-478,2978,-329,6001,4676,
1440,7,28,2023,12,52,43,515,-1787,213,2885,115,6905,4447,
1441,7,28,2023,12,52,43,525,-1457,521,2692,13,7457,4081,
1442,7,28,2023,12,52,43,535,-504,-49,2507,-362,7830,3573,
1443,7,28,2023,12,52,43,545,645,-243,2574,-380,8268,3108,
1444,7,28,2023,12,52,43,555,1856,-50,2779,-414,8816,2933,
1445,7,28,2023,12,52,43,565,2958,-267,2566,-797,9373,3116,
1446,7,28,2023,12,52,43,585,4202,-701,1407,-746,9774,3912,
1447,7,28,2023,12,52,43,595,4960,-351,1170,-401,9256,4322,
1448,7,28,2023,12,52,43,605,6186,-35,1149,-314,8427,4749,
1449,7,28,2023,12,52,43,615,7400,277,1160,-397,7520,5193,
1450,7,28,2023,12,52,43,625,8075,512,920,-404,6612,5518,
1451,7,28,2023,12,52,43,635,8389,803,663,-164,5609,5440,
1452,7,28,2023,12,52,43,645,8957,1125,474,265,4477,4901,
1453,7,28,2023,12,52,43,655,9404,744,680,893,3454,4130,
1454,7,28,2023,12,52,43,665,9603,466,920,1605,2865,3337,
1455,7,28,2023,12,52,43,675,8585,123,530,1894,2718,2762,
1456,7,28,2023,12,52,43,685,6991,-322,-136,1677,2429,2199,
1457,7,28,2023,12,52,43,695,5812,-649,-409,1167,1647,1583,
1458,7,28,2023,12,52,43,705,5161,-696,-611,448,550,1106,
1459,7,28,2023,12,52,43,715,3588,-514,-1100,-415,-769,800,
1460,7,28,2023,12,52,43,725,2358,-453,-1350,-1017,-2696,435,
1461,7,28,2023,12,52,43,735,7678,-4547,1996,-944,-4746,-210,
1462,7,28,2023,12,52,43,745,11594,-1103,8796,2144,-2136,-1983,
1463,7,28,2023,12,52,43,755,3321,759,3447,736,2360,159,
1464,7,28,2023,12,52,43,765,2079,-7703,424,457,2620,-651,
1465,7,28,2023,12,52,43,775,2674,-3036,3228,3000,1242,-696,
1466,7,28,2023,12,52,43,785,1850,60,4964,2914,1284,-1313,
1467,7,28,2023,12,52,43,795,2256,-1189,4090,2065,1657,-1599,
1468,7,28,2023,12,52,43,805,3034,993,4117,1885,1548,-1395,
1469,7,28,2023,12,52,43,815,3140,1237,4161,1592,1244,-1081,
1470,7,28,2023,12,52,43,825,2607,1224,4347,956,788,-533,
1471,7,28,2023,12,52,43,835,2384,510,4139,271,410,-3,
1472,7,28,2023,12,52,43,845,2311,-218,3785,-174,126,350,
1473,7,28,2023,12,52,43,855,2207,-596,3622,-374,-64,506,
1474,7,28,2023,12,52,43,865,2284,-818,3426,-422,-173,553,
1475,7,28,2023,12,52,43,875,2377,-1019,3238,-407,-229,547,
1476,7,28,2023,12,52,43,885,2281,-1324,3110,-327,-221,455,
1477,7,28,2023,12,52,43,895,2229,-1312,3111,-180,-173,289,
1478,7,28,2023,12,52,43,905,2300,-1101,3125,-51,-98,131,
1479,7,28,2023,12,52,43,915,2323,-942,3169,40,-19,17,
1480,7,28,2023,12,52,43,925,2288,-941,3191,102,47,-50,
1481,7,28,2023,12,52,43,935,2257,-919,3250,156,112,-106,
1482,7,28,2023,12,52,43,945,2259,-733,3325,199,157,-145,
1483,7,28,2023,12,52,43,955,2253,-647,3403,194,157,-135,
1484,7,28,2023,12,52,43,965,2301,-670,3445,164,128,-106,
1485,7,28,2023,12,52,43,975,2355,-626,3451,122,80,-76,
1486,7,28,2023,12,52,43,985,2393,-610,3426,67,31,-36,
1487,7,28,2023,12,52,43,995,2370,-644,3396,13,-3,8,
1488,7,28,2023,12,52,44,5,2349,-706,3364,-21,-15,42,
1489,7,28,2023,12,52,44,15,2390,-714,3336,-34,-10,58,
1490,7,28,2023,12,52,44,25,2354,-723,3305,-43,16,73,
1491,7,28,2023,12,52,44,35,2288,-806,3308,-48,38,87,
1492,7,28,2023,12,52,44,45,2278,-854,3338,-26,54,74,
1493,7,28,2023,12,52,44,55,2292,-835,3330,-6,57,51,
1494,7,28,2023,12,52,44,65,2257,-849,3336,4,51,30,
1495,7,28,2023,12,52,44,75,2296,-812,3345,24,43,8,
1496,7,28,2023,12,52,44,85,2313,-736,3344,35,39,-6,
1497,7,28,2023,12,52,44,95,2301,-708,3345,31,43,-7,
1498,7,28,2023,12,52,44,105,2331,-703,3326,20,54,7,
1499,7,28,2023,12,52,44,115,2326,-724,3325,12,66,22,
1500,7,28,2023,12,52,44,125,2306,-764,3312,7,81,36,
1501,7,28,2023,12,52,44,135,2261,-774,3331,10,99,34,
1502,7,28,2023,12,52,44,145,2279,-787,3338,18,103,31,
1503,7,28,2023,12,52,44,155,2278,-811,3346,29,109,17,
1504,7,28,2023,12,52,44,165,2260,-805,3352,37,108,2,
1505,7,28,2023,12,52,44,175,2274,-772,3364,49,104,-11,
1506,7,28,2023,12,52,44,185,2302,-739,3374,51,98,-13,
1507,7,28,2023,12,52,44,195,2318,-711,3372,43,98,-7,
1508,7,28,2023,12,52,44,205,2314,-719,3370,31,101,5,
1509,7,28,2023,12,52,44,215,2309,-703,3363,21,105,19,
1510,7,28,2023,12,52,44,225,2280,-695,3354,10,114,38,
1511,7,28,2023,12,52,44,235,2205,-784,3382,-4,119,55,
1512,7,28,2023,12,52,44,245,2246,-808,3376,-4,107,54,
1513,7,28,2023,12,52,44,255,2252,-789,3371,6,95,39,
1514,7,28,2023,12,52,44,265,2247,-807,3351,9,88,35,
1515,7,28,2023,12,52,44,275,2241,-815,3349,21,85,19,
1516,7,28,2023,12,52,44,285,2242,-789,3352,39,89,2,
1517,7,28,2023,12,52,44,295,2236,-761,3359,49,93,-6,
1518,7,28,2023,12,52,44,305,2257,-747,3373,53,95,-10,
1519,7,28,2023,12,52,44,315,2263,-751,3380,51,99,-7,
1520,7,28,2023,12,52,44,325,2235,-751,3386,49,100,-3,
1521,7,28,2023,12,52,44,335,2209,-754,3394,45,84,1,
1522,7,28,2023,12,52,44,345,2193,-759,3388,37,62,-2,
1523,7,28,2023,12,52,44,355,2174,-793,3391,32,41,-3,
1524,7,28,2023,12,52,44,365,2231,-745,3407,32,20,-15,
1525,7,28,2023,12,52,44,375,2268,-701,3401,15,5,-14,
1526,7,28,2023,12,52,44,385,2264,-735,3376,1,-3,-6,
1527,7,28,2023,12,52,44,395,2268,-730,3373,-4,-7,-1,
1528,7,28,2023,12,52,44,405,2253,-736,3377,-9,-8,7,
1529,7,28,2023,12,52,44,415,2221,-788,3370,-10,-11,10,
1530,7,28,2023,12,52,44,425,2233,-798,3362,-3,-17,0,
1531,7,28,2023,12,52,44,445,2264,-762,3363,12,-2,-12,
1532,7,28,2023,12,52,44,455,2255,-751,3370,19,1,-12,
1533,7,28,2023,12,52,44,465,2251,-748,3379,19,6,-14,
1534,7,28,2023,12,52,44,475,2249,-759,3379,17,7,-14,
1535,7,28,2023,12,52,44,485,2253,-743,3375,21,8,-19,
1536,7,28,2023,12,52,44,495,2249,-741,3373,21,2,-18,
1537,7,28,2023,12,52,44,505,2243,-766,3384,16,-3,-17,
1538,7,28,2023,12,52,44,515,2257,-751,3379,19,-7,-18,
1539,7,28,2023,12,52,44,525,2259,-739,3363,15,-7,-17,
1540,7,28,2023,12,52,44,535,2252,-753,3369,15,-3,-14,
1541,7,28,2023,12,52,44,545,2252,-747,3372,17,4,-16,
1542,7,28,2023,12,52,44,555,2249,-736,3367,20,9,-19,
1543,7,28,2023,12,52,44,565,2250,-741,3371,22,14,-17,
1544,7,28,2023,12,52,44,575,2255,-754,3376,24,15,-15,
1545,7,28,2023,12,52,44,585,2261,-735,3374,23,16,-16,
1546,7,28,2023,12,52,44,595,2257,-742,3362,23,16,-13,
1547,7,28,2023,12,52,44,605,2251,-738,3369,21,24,-12,
1548,7,28,2023,12,52,44,615,2245,-747,3389,20,26,-14,
1549,7,28,2023,12,52,44,625,2256,-751,3385,21,17,-16,
1550,7,28,2023,12,52,44,635,2250,-744,3386,19,15,-17,
1551,7,28,2023,12,52,44,645,2247,-740,3381,17,13,-15,
1552,7,28,2023,12,52,44,655,2258,-724,3378,16,13,-13,
1553,7,28,2023,12,52,44,665,2252,-731,3380,15,12,-14,
1554,7,28,2023,12,52,44,675,2260,-729,3382,13,13,-9,
1555,7,28,2023,12,52,44,685,2255,-741,3378,9,14,-5,
1556,7,28,2023,12,52,44,695,2244,-731,3379,6,14,-5,
1557,7,28,2023,12,52,44,705,2254,-729,3377,10,13,-2,
1558,7,28,2023,12,52,44,715,2229,-760,3362,8,12,-3,
1559,7,28,2023,12,52,44,725,2210,-774,3374,14,8,-6,
1560,7,28,2023,12,52,44,735,2251,-742,3383,20,1,-15,
1561,7,28,2023,12,52,44,745,2256,-732,3379,20,-6,-16,
1562,7,28,2023,12,52,44,755,2244,-756,3367,20,-9,-17,
1563,7,28,2023,12,52,44,765,2241,-752,3371,22,-9,-21,
1564,7,28,2023,12,52,44,775,2255,-729,3382,24,-9,-25,
1565,7,28,2023,12,52,44,785,2251,-736,3381,25,-4,-25,
1566,7,28,2023,12,52,44,795,2232,-751,3390,27,-4,-27,
1567,7,28,2023,12,52,44,805,2243,-737,3390,26,-12,-29,
1568,7,28,2023,12,52,44,815,2259,-717,3388,22,-19,-30,
1569,7,28,2023,12,52,44,825,2245,-718,3381,18,-19,-31,
1570,7,28,2023,12,52,44,835,2244,-717,3389,17,-23,-27,
1571,7,28,2023,12,52,44,845,2264,-732,3375,16,-25,-26,
1572,7,28,2023,12,52,44,855,2260,-713,3377,18,-23,-27,
1573,7,28,2023,12,52,44,865,2251,-722,3372,16,-25,-23,
1574,7,28,2023,12,52,44,875,2259,-735,3371,13,-27,-22,
1575,7,28,2023,12,52,44,885,2263,-728,3373,16,-22,-29,
1576,7,28,2023,12,52,44,895,2264,-726,3367,17,-22,-27,
1577,7,28,2023,12,52,44,905,2249,-726,3373,19,-18,-20,
1578,7,28,2023,12,52,44,915,2264,-713,3368,17,-19,-23,
1579,7,28,2023,12,52,44,925,2265,-697,3376,13,-13,-25,
1580,7,28,2023,12,52,44,935,2267,-720,3378,10,-12,-19,
1581,7,28,2023,12,52,44,945,2261,-711,3379,8,-16,-13,
1582,7,28,2023,12,52,44,955,2270,-727,3372,6,-17,-9,
1583,7,28,2023,12,52,44,965,2267,-732,3370,7,-16,-12,
1584,7,28,2023,12,52,44,975,2273,-723,3371,10,-14,-13,
1585,7,28,2023,12,52,44,985,2263,-720,3364,8,-5,-12,
1586,7,28,2023,12,52,44,995,2268,-710,3372,9,-3,-11,
1587,7,28,2023,12,52,45,5,2272,-705,3381,10,0,-13,
1588,7,28,2023,12,52,45,15,2259,-724,3368,10,4,-8,
1589,7,28,2023,12,52,45,25,2246,-742,3371,7,5,-10,
1590,7,28,2023,12,52,45,35,2265,-720,3375,13,3,-13,
1591,7,28,2023,12,52,45,45,2257,-717,3377,15,-5,-11,
1592,7,28,2023,12,52,45,55,2255,-730,3385,15,-5,-13,
1593,7,28,2023,12,52,45,65,2262,-716,3385,6,-10,-16,
1594,7,28,2023,12,52,45,75,2271,-705,3382,4,-16,-14,
1595,7,28,2023,12,52,45,85,2257,-708,3378,-3,-19,-12,
1596,7,28,2023,12,52,45,95,2267,-725,3366,-2,-17,-11,
1597,7,28,2023,12,52,45,105,2259,-733,3366,4,-16,-13,
1598,7,28,2023,12,52,45,115,2264,-729,3372,10,-15,-16,
1599,7,28,2023,12,52,45,125,2255,-729,3384,10,-15,-19,
1600,7,28,2023,12,52,45,135,2274,-702,3384,8,-18,-22,
1601,7,28,2023,12,52,45,145,2270,-708,3372,8,-17,-23,
1602,7,28,2023,12,52,45,155,2266,-714,3375,6,-16,-20,
1603,7,28,2023,12,52,45,165,2243,-720,3378,6,-20,-18,
1604,7,28,2023,12,52,45,175,2258,-721,3377,7,-26,-19,
1605,7,28,2023,12,52,45,185,2256,-716,3378,6,-28,-21,
1606,7,28,2023,12,52,45,195,2272,-722,3375,7,-34,-23,
1607,7,28,2023,12,52,45,205,2272,-722,3377,4,-35,-22,
1608,7,28,2023,12,52,45,215,2257,-731,3370,6,-43,-26,
1609,7,28,2023,12,52,45,225,2249,-743,3359,11,-41,-33,
1610,7,28,2023,12,52,45,235,2265,-721,3363,18,-45,-41,
1611,7,28,2023,12,52,45,245,2264,-709,3371,21,-45,-47,
1612,7,28,2023,12,52,45,255,2266,-707,3382,18,-47,-46,
1613,7,28,2023,12,52,45,265,2280,-692,3383,16,-53,-48,
1614,7,28,2023,12,52,45,275,2300,-670,3365,8,-56,-45,
1615,7,28,2023,12,52,45,285,2289,-691,3370,-2,-50,-30,
1616,7,28,2023,12,52,45,305,2290,-702,3352,1,-53,-22,
1617,7,28,2023,12,52,45,315,2294,-697,3342,0,-43,-20,
1618,7,28,2023,12,52,45,325,2299,-697,3353,1,-31,-20,
1619,7,28,2023,12,52,45,335,2291,-700,3355,3,-22,-17,
1620,7,28,2023,12,52,45,345,2284,-700,3355,6,-19,-12,
1621,7,28,2023,12,52,45,355,2299,-704,3354,6,-15,-11,
1622,7,28,2023,12,52,45,365,2296,-691,3351,3,-9,-12,
1623,7,28,2023,12,52,45,375,2286,-711,3359,1,-4,-6,
1624,7,28,2023,12,52,45,385,2291,-711,3363,1,-5,-4,
1625,7,28,2023,12,52,45,395,2293,-708,3361,5,-3,-8,
1626,7,28,2023,12,52,45,405,2288,-703,3364,11,-2,-10,
1627,7,28,2023,12,52,45,415,2288,-690,3365,9,-1,-7,
1628,7,28,2023,12,52,45,425,2287,-697,3365,6,-1,-1,
1629,7,28,2023,12,52,45,435,2293,-701,3356,2,0,-2,
1630,7,28,2023,12,52,45,445,2293,-702,3362,1,1,-1,
1631,7,28,2023,12,52,45,455,2279,-705,3360,-1,0,0,
1632,7,28,2023,12,52,45,465,2272,-717,3361,-3,5,2,
1633,7,28,2023,12,52,45,475,2270,-715,3373,3,1,-1,
1634,7,28,2023,12,52,45,485,2276,-712,3378,2,-6,-7,
1635,7,28,2023,12,52,45,495,2298,-678,3375,-2,-17,-9,
1636,7,28,2023,12,52,45,505,2288,-688,3372,-11,-23,-3,
1637,7,28,2023,12,52,45,515,2297,-691,3366,-15,-25,1,
1638,7,28,2023,12,52,45,525,2300,-702,3357,-15,-24,6,
1639,7,28,2023,12,52,45,535,2299,-694,3353,-15,-25,7,
1640,7,28,2023,12,52,45,545,2307,-694,3346,-21,-19,9,
1641,7,28,2023,12,52,45,555,2305,-696,3342,-18,-11,13,
1642,7,28,2023,12,52,45,565,2298,-710,3341,-13,3,19,
1643,7,28,2023,12,52,45,575,2291,-712,3342,-11,14,21,
1644,7,28,2023,12,52,45,585,2291,-714,3337,-8,23,17,
1645,7,28,2023,12,52,45,595,2296,-720,3356,-1,26,15,
1646,7,28,2023,12,52,45,605,2287,-712,3358,5,30,15,
1647,7,28,2023,12,52,45,615,2291,-705,3369,2,27,9,
1648,7,28,2023,12,52,45,625,2293,-698,3369,4,26,7,
1649,7,28,2023,12,52,45,635,2292,-693,3367,0,23,12,
1650,7,28,2023,12,52,45,645,2284,-694,3356,-5,21,17,
1651,7,28,2023,12,52,45,655,2296,-699,3357,-7,23,17,
1652,7,28,2023,12,52,45,665,2289,-710,3359,-7,25,23,
1653,7,28,2023,12,52,45,675,2288,-711,3361,-10,30,25,
1654,7,28,2023,12,52,45,685,2282,-711,3360,-7,35,21,
1655,7,28,2023,12,52,45,695,2276,-714,3358,-6,32,16,
1656,7,28,2023,12,52,45,705,2284,-714,3362,-5,33,20,
1657,7,28,2023,12,52,45,715,2282,-703,3364,-4,31,18,
1658,7,28,2023,12,52,45,725,2289,-701,3358,-8,25,21,
1659,7,28,2023,12,52,45,735,2289,-710,3360,-7,31,21,
1660,7,28,2023,12,52,45,745,2287,-712,3360,-10,30,19,
1661,7,28,2023,12,52,45,755,2281,-720,3363,-7,31,23,
1662,7,28,2023,12,52,45,765,2268,-725,3361,-3,31,15,
1663,7,28,2023,12,52,45,775,2268,-717,3355,0,30,12,
1664,7,28,2023,12,52,45,785,2267,-711,3371,0,30,11,
1665,7,28,2023,12,52,45,795,2280,-712,3374,3,25,11,
1666,7,28,2023,12,52,45,805,2274,-715,3366,5,20,7,
1667,7,28,2023,12,52,45,815,2282,-705,3366,2,19,12,
1668,7,28,2023,12,52,45,825,2283,-706,3364,-3,17,9,
1669,7,28,2023,12,52,45,835,2274,-707,3364,-4,17,8,
1670,7,28,2023,12,52,45,845,2283,-704,3357,0,19,11,
1671,7,28,2023,12,52,45,855,2287,-715,3365,-2,24,10,
1672,7,28,2023,12,52,45,865,2288,-710,3368,1,26,13,
1673,7,28,2023,12,52,45,875,2283,-706,3360,3,28,11,
1674,7,28,2023,12,52,45,885,2285,-708,3360,3,32,11,
1675,7,28,2023,12,52,45,895,2269,-707,3368,5,36,15,
1676,7,28,2023,12,52,45,905,2274,-720,3373,5,35,11,
1677,7,28,2023,12,52,45,915,2279,-697,3378,8,39,12,
1678,7,28,2023,12,52,45,925,2270,-713,3368,-1,32,16,
1679,7,28,2023,12,52,45,935,2266,-718,3360,0,29,15,
1680,7,28,2023,12,52,45,945,2282,-705,3375,2,26,14,
1681,7,28,2023,12,52,45,955,2276,-711,3367,0,26,16,
1682,7,28,2023,12,52,45,965,2275,-709,3365,-3,27,17,
1683,7,28,2023,12,52,45,975,2278,-713,3367,-3,27,16,
1684,7,28,2023,12,52,45,985,2270,-717,3373,1,29,16,
1685,7,28,2023,12,52,45,995,2271,-723,3362,1,30,15,
1686,7,28,2023,12,52,46,5,2257,-717,3366,1,30,15,
1687,7,28,2023,12,52,46,15,2271,-714,3361,5,30,16,
1688,7,28,2023,12,52,46,25,2282,-715,3358,3,35,13,
1689,7,28,2023,12,52,46,35,2268,-712,3362,7,39,14,
1690,7,28,2023,12,52,46,45,2267,-707,3366,8,41,15,
1691,7,28,2023,12,52,46,55,2266,-708,3370,4,47,19,
1692,7,28,2023,12,52,46,65,2269,-721,3377,4,47,21,
1693,7,28,2023,12,52,46,75,2270,-715,3376,8,48,18,
1694,7,28,2023,12,52,46,85,2260,-702,3374,8,52,19,
1695,7,28,2023,12,52,46,95,2264,-708,3372,6,49,25,
1696,7,28,2023,12,52,46,105,2252,-723,3385,2,45,25,
1697,7,28,2023,12,52,46,115,2260,-730,3377,6,46,20,
1698,7,28,2023,12,52,46,125,2261,-729,3380,11,43,20,
1699,7,28,2023,12,52,46,135,2263,-716,3374,10,41,13,
1700,7,28,2023,12,52,46,145,2264,-724,3366,13,44,10,
1701,7,28,2023,12,52,46,165,2266,-702,3381,15,50,9,
1702,7,28,2023,12,52,46,175,2257,-703,3380,14,50,17,
1703,7,28,2023,12,52,46,185,2250,-714,3391,23,56,19,
1704,7,28,2023,12,52,46,195,2243,-716,3387,6,44,17,
1705,7,28,2023,12,52,46,205,2249,-714,3382,0,38,16,
1706,7,28,2023,12,52,46,215,2243,-709,3386,0,36,17,
1707,7,28,2023,12,52,46,225,2246,-716,3383,-4,31,17,
1708,7,28,2023,12,52,46,235,2257,-706,3392,-7,28,19,
1709,7,28,2023,12,52,46,245,2263,-702,3385,-10,27,18,
1710,7,28,2023,12,52,46,255,2254,-714,3387,-7,30,19,
1711,7,28,2023,12,52,46,265,2255,-719,3381,-8,26,17,
1712,7,28,2023,12,52,46,275,2250,-705,3376,-9,25,19,
1713,7,28,2023,12,52,46,285,2263,-697,3372,-10,31,23,
1714,7,28,2023,12,52,46,295,2244,-724,3383,-9,36,23,
1715,7,28,2023,12,52,46,305,2240,-729,3384,-8,33,24,
1716,7,28,2023,12,52,46,315,2243,-726,3380,-6,31,21,
1717,7,28,2023,12,52,46,325,2237,-727,3391,-6,28,19,
1718,7,28,2023,12,52,46,335,2234,-736,3385,-6,28,14,
1719,7,28,2023,12,52,46,345,2244,-725,3382,0,27,5,
1720,7,28,2023,12,52,46,355,2249,-717,3399,5,21,5,
1721,7,28,2023,12,52,46,365,2252,-709,3386,2,17,6,
1722,7,28,2023,12,52,46,375,2251,-698,3385,2,18,6,
1723,7,28,2023,12,52,46,385,2254,-702,3389,-2,17,10,
1724,7,28,2023,12,52,46,395,2254,-718,3378,-7,20,13,
1725,7,28,2023,12,52,46,405,2251,-717,3387,-6,27,11,
1726,7,28,2023,12,52,46,415,2241,-723,3380,-3,27,15,
1727,7,28,2023,12,52,46,425,2244,-725,3375,-1,25,14,
1728,7,28,2023,12,52,46,435,2242,-732,3387,2,34,7,
1729,7,28,2023,12,52,46,445,2244,-712,3383,5,32,7,
1730,7,28,2023,12,52,46,455,2237,-717,3388,6,30,7,
1731,7,28,2023,12,52,46,465,2239,-725,3382,8,31,8,
1732,7,28,2023,12,52,46,475,2243,-718,3389,6,32,8,
1733,7,28,2023,12,52,46,485,2241,-719,3397,8,27,8,
1734,7,28,2023,12,52,46,495,2255,-710,3392,6,23,8,
1735,7,28,2023,12,52,46,505,2241,-722,3380,6,27,7,
1736,7,28,2023,12,52,46,515,2225,-732,3388,8,32,11,
1737,7,28,2023,12,52,46,525,2239,-724,3393,9,33,4,
1738,7,28,2023,12,52,46,535,2248,-721,3387,13,34,4,
1739,7,28,2023,12,52,46,545,2229,-714,3395,15,33,7,
1740,7,28,2023,12,52,46,555,2241,-718,3393,14,32,0,
1741,7,28,2023,12,52,46,565,2238,-725,3386,13,31,1,
1742,7,28,2023,12,52,46,575,2232,-709,3394,14,29,-1,
1743,7,28,2023,12,52,46,585,2240,-706,3390,14,31,0,
1744,7,28,2023,12,52,46,595,2235,-710,3393,11,32,3,
1745,7,28,2023,12,52,46,605,2243,-707,3393,9,26,9,
1746,7,28,2023,12,52,46,615,2235,-708,3398,5,29,11,
1747,7,28,2023,12,52,46,625,2239,-713,3386,1,31,9,
1748,7,28,2023,12,52,46,635,2240,-717,3389,4,27,7,
1749,7,28,2023,12,52,46,645,2223,-726,3397,2,30,6,
1750,7,28,2023,12,52,46,655,2224,-713,3397,5,33,3,
1751,7,28,2023,12,52,46,665,2230,-720,3400,9,24,4,
1752,7,28,2023,12,52,46,675,2230,-719,3403,4,19,5,
1753,7,28,2023,12,52,46,685,2224,-720,3392,2,21,5,
1754,7,28,2023,12,52,46,695,2228,-719,3399,3,16,5,
1755,7,28,2023,12,52,46,705,2229,-722,3392,5,15,3,
1756,7,28,2023,12,52,46,715,2221,-718,3396,4,12,-3,
1757,7,28,2023,12,52,46,725,2234,-710,3404,5,10,-5,
1758,7,28,2023,12,52,46,735,2238,-705,3401,5,8,-2,
1759,7,28,2023,12,52,46,745,2235,-710,3398,1,6,-2,
1760,7,28,2023,12,52,46,755,2240,-705,3396,1,8,0,
1761,7,28,2023,12,52,46,765,2238,-708,3395,3,11,2,
1762,7,28,2023,12,52,46,775,2231,-724,3398,4,10,2,
1763,7,28,2023,12,52,46,785,2227,-717,3386,4,9,4,
1764,7,28,2023,12,52,46,795,2229,-724,3386,4,13,0,
1765,7,28,2023,12,52,46,805,2231,-716,3392,5,15,-6,
1766,7,28,2023,12,52,46,815,2236,-711,3392,8,17,-5,
1767,7,28,2023,12,52,46,825,2223,-714,3399,7,18,-1,
1768,7,28,2023,12,52,46,835,2224,-716,3392,8,13,-2,
1769,7,28,2023,12,52,46,845,2237,-710,3394,12,13,-3,
1770,7,28,2023,12,52,46,855,2235,-714,3387,9,16,-7,
1771,7,28,2023,12,52,46,865,2220,-714,3401,13,11,-6,
1772,7,28,2023,12,52,46,875,2228,-719,3396,13,8,-9,
1773,7,28,2023,12,52,46,885,2224,-708,3402,12,10,-7,
1774,7,28,2023,12,52,46,895,2226,-708,3402,12,10,-9,
1775,7,28,2023,12,52,46,905,2222,-710,3394,12,6,-9,
1776,7,28,2023,12,52,46,915,2236,-711,3397,10,7,-10,
1777,7,28,2023,12,52,46,925,2230,-697,3403,9,9,-8,
1778,7,28,2023,12,52,46,935,2232,-703,3400,6,6,-4,
1779,7,28,2023,12,52,46,945,2236,-699,3398,6,3,-3,
1780,7,28,2023,12,52,46,955,2235,-696,3397,1,7,-2,
1781,7,28,2023,12,52,46,965,2230,-699,3401,-2,4,0,
1782,7,28,2023,12,52,46,975,2224,-704,3400,-6,3,4,
1783,7,28,2023,12,52,46,985,2226,-710,3393,-7,4,7,
1784,7,28,2023,12,52,46,995,2230,-708,3396,-7,-2,7,
1785,7,28,2023,12,52,47,5,2239,-704,3391,-5,-3,7,
1786,7,28,2023,12,52,47,25,2232,-721,3388,-5,2,6,
1787,7,28,2023,12,52,47,35,2232,-711,3382,-2,2,1,
1788,7,28,2023,12,52,47,45,2228,-717,3391,0,4,-2,
1789,7,28,2023,12,52,47,55,2230,-716,3398,3,5,2,
1790,7,28,2023,12,52,47,65,2231,-715,3393,6,7,1,
1791,7,28,2023,12,52,47,75,2225,-704,3397,2,8,-2,
1792,7,28,2023,12,52,47,85,2227,-709,3392,7,8,-1,
1793,7,28,2023,12,52,47,95,2229,-714,3383,9,5,-1,
1794,7,28,2023,12,52,47,105,2223,-712,3398,6,5,-5,
1795,7,28,2023,12,52,47,115,2236,-713,3396,10,8,-5,
1796,7,28,2023,12,52,47,125,2231,-707,3401,10,8,-3,
1797,7,28,2023,12,52,47,135,2230,-710,3392,8,5,-5,
1798,7,28,2023,12,52,47,145,2228,-709,3397,8,1,-5,
1799,7,28,2023,12,52,47,155,2233,-699,3397,9,3,-5,
1800,7,28,2023,12,52,47,165,2233,-711,3396,9,0,-6,
1801,7,28,2023,12,52,47,175,2231,-710,3397,8,6,-5,
1802,7,28,2023,12,52,47,185,2229,-703,3393,6,10,0,
1803,7,28,2023,12,52,47,195,2234,-707,3390,7,4,2,
1804,7,28,2023,12,52,47,205,2235,-714,3391,8,5,-1,
1805,7,28,2023,12,52,47,215,2224,-717,3400,9,7,-7,
1806,7,28,2023,12,52,47,225,2224,-702,3401,9,7,-7,
1807,7,28,2023,12,52,47,235,2239,-707,3394,11,8,-9,
1808,7,28,2023,12,52,47,245,2228,-711,3404,13,6,-7,
1809,7,28,2023,12,52,47,255,2232,-709,3393,12,9,-9,
1810,7,28,2023,12,52,47,265,2233,-694,3393,12,6,-9,
1811,7,28,2023,12,52,47,275,2237,-696,3402,9,4,-7,
1812,7,28,2023,12,52,47,285,2235,-699,3404,6,1,-2,
1813,7,28,2023,12,52,47,295,2233,-708,3394,3,1,-6,
1814,7,28,2023,12,52,47,305,2236,-704,3391,2,2,-5,
1815,7,28,2023,12,52,47,315,2245,-700,3396,-1,3,-1,
1816,7,28,2023,12,52,47,325,2234,-698,3399,-2,5,-1,
1817,7,28,2023,12,52,47,335,2227,-703,3400,-2,1,0,
1818,7,28,2023,12,52,47,345,2229,-710,3390,1,5,1,
1819,7,28,2023,12,52,47,355,2229,-710,3398,-1,7,-1,
1820,7,28,2023,12,52,47,365,2230,-695,3398,-5,7,0,
1821,7,28,2023,12,52,47,375,2235,-699,3392,-4,7,4,
1822,7,28,2023,12,52,47,385,2233,-694,3391,-1,4,2,
1823,7,28,2023,12,52,47,395,2236,-697,3391,-4,4,7,
1824,7,28,2023,12,52,47,405,2228,-704,3399,-3,5,10,
1825,7,28,2023,12,52,47,415,2223,-716,3398,-7,8,9,
1826,7,28,2023,12,52,47,425,2223,-715,3392,-3,8,4,
1827,7,28,2023,12,52,47,435,2233,-703,3394,1,8,1,
1828,7,28,2023,12,52,47,445,2230,-706,3399,-1,9,3,
1829,7,28,2023,12,52,47,455,2231,-696,3399,-2,9,2,
1830,7,28,2023,12,52,47,465,2234,-706,3391,1,7,2,
1831,7,28,2023,12,52,47,475,2223,-708,3397,0,8,-1,
1832,7,28,2023,12,52,47,485,2228,-705,3398,-1,5,-1,
1833,7,28,2023,12,52,47,495,2237,-702,3396,-1,4,2,
1834,7,28,2023,12,52,47,505,2237,-698,3395,2,4,1,
1835,7,28,2023,12,52,47,515,2230,-698,3399,4,8,3,
1836,7,28,2023,12,52,47,525,2228,-707,3394,3,9,6,
1837,7,28,2023,12,52,47,535,2228,-704,3394,1,13,2,
1838,7,28,2023,12,52,47,545,2237,-705,3399,1,14,5,
1839,7,28,2023,12,52,47,555,2232,-708,3384,1,13,6,
1840,7,28,2023,12,52,47,565,2229,-705,3397,3,14,6,
1841,7,28,2023,12,52,47,575,2238,-703,3392,2,14,4,
1842,7,28,2023,12,52,47,585,2231,-700,3394,3,18,6,
1843,7,28,2023,12,52,47,595,2225,-700,3402,3,23,4,
1844,7,28,2023,12,52,47,605,2227,-709,3405,4,19,8,
1845,7,28,2023,12,52,47,615,2220,-714,3399,6,16,6,
1846,7,28,2023,12,52,47,625,2224,-706,3400,6,13,-1,
1847,7,28,2023,12,52,47,635,2229,-704,3404,5,12,-2,
1848,7,28,2023,12,52,47,645,2227,-695,3401,2,7,0,
1849,7,28,2023,12,52,47,655,2226,-702,3401,0,8,1,
1850,7,28,2023,12,52,47,665,2221,-710,3395,-3,8,3,
1851,7,28,2023,12,52,47,675,2226,-702,3402,-1,4,3,
1852,7,28,2023,12,52,47,685,2229,-696,3402,0,4,4,
1853,7,28,2023,12,52,47,695,2219,-707,3402,-3,5,4,
1854,7,28,2023,12,52,47,705,2222,-706,3393,-9,6,4,
1855,7,28,2023,12,52,47,715,2216,-716,3392,-6,4,4,
1856,7,28,2023,12,52,47,725,2222,-705,3399,-3,1,1,
1857,7,28,2023,12,52,47,735,2227,-698,3401,-6,-1,3,
1858,7,28,2023,12,52,47,745,2229,-707,3393,-7,-2,3,
1859,7,28,2023,12,52,47,755,2228,-702,3399,-5,0,4,
1860,7,28,2023,12,52,47,765,2234,-696,3396,-5,-1,4,
1861,7,28,2023,12,52,47,775,2228,-704,3394,-10,0,6,
1862,7,28,2023,12,52,47,785,2214,-706,3398,-8,3,6,
1863,7,28,2023,12,52,47,795,2215,-716,3397,-3,0,3,
1864,7,28,2023,12,52,47,805,2226,-713,3399,0,-5,2,
1865,7,28,2023,12,52,47,815,2240,-705,3402,3,-4,0,
1866,7,28,2023,12,52,47,825,2233,-703,3392,1,-2,0,
1867,7,28,2023,12,52,47,835,2231,-704,3392,2,-3,0,
1868,7,28,2023,12,52,47,845,2222,-707,3397,3,0,-2,
1869,7,28,2023,12,52,47,855,2225,-712,3399,5,2,-2,
1870,7,28,2023,12,52,47,865,2230,-711,3402,3,4,-3,
1871,7,28,2023,12,52,47,885,2234,-698,3398,1,3,-1,
1872,7,28,2023,12,52,47,895,2235,-703,3398,-3,5,1,
1873,7,28,2023,12,52,47,905,2232,-703,3390,-2,0,4,
1874,7,28,2023,12,52,47,915,2227,-702,3400,-2,1,7,
1875,7,28,2023,12,52,47,925,2223,-698,3402,-5,4,5,
1876,7,28,2023,12,52,47,935,2215,-709,3403,-7,0,1,
1877,7,28,2023,12,52,47,945,2220,-707,3395,-8,-5,1,
1878,7,28,2023,12,52,47,955,2230,-707,3395,-9,-6,2,
1879,7,28,2023,12,52,47,965,2233,-709,3396,-5,-6,2,
1880,7,28,2023,12,52,47,975,2233,-708,3385,0,-6,1,
1881,7,28,2023,12,52,47,985,2234,-703,3402,-1,-4,0,
1882,7,28,2023,12,52,47,995,2232,-705,3396,1,-1,0,
1883,7,28,2023,12,52,48,5,2235,-711,3393,-4,1,1,
1884,7,28,2023,12,52,48,15,2220,-714,3398,-1,2,0,
1885,7,28,2023,12,52,48,25,2230,-717,3399,1,5,-2,
1886,7,28,2023,12,52,48,35,2235,-708,3396,5,5,-2,
1887,7,28,2023,12,52,48,45,2227,-711,3394,5,6,-1,
1888,7,28,2023,12,52,48,55,2227,-711,3392,5,5,-5,
1889,7,28,2023,12,52,48,65,2231,-703,3397,9,5,-4,
1890,7,28,2023,12,52,48,75,2223,-705,3397,8,8,-3,
1891,7,28,2023,12,52,48,85,2229,-704,3400,7,2,-1,
1892,7,28,2023,12,52,48,95,2228,-707,3396,5,2,-4,
1893,7,28,2023,12,52,48,105,2227,-703,3393,5,1,-4,
1894,7,28,2023,12,52,48,115,2222,-701,3399,5,-4,-5,
1895,7,28,2023,12,52,48,125,2222,-707,3398,5,-7,-4,
1896,7,28,2023,12,52,48,135,2232,-699,3395,8,-6,-7,
1897,7,28,2023,12,52,48,145,2232,-700,3398,3,-6,-8,
1898,7,28,2023,12,52,48,155,2238,-702,3403,3,-8,-5,
1899,7,28,2023,12,52,48,165,2232,-699,3399,5,-9,-6,
1900,7,28,2023,12,52,48,175,2224,-708,3392,3,-8,-6,
1901,7,28,2023,12,52,48,185,2218,-708,3404,4,-8,-6,
1902,7,28,2023,12,52,48,195,2235,-707,3400,5,-14,-9,
1903,7,28,2023,12,52,48,205,2224,-716,3400,3,-15,-10,
1904,7,28,2023,12,52,48,215,2231,-706,3393,6,-17,-11,
1905,7,28,2023,12,52,48,225,2236,-701,3392,5,-18,-15,
1906,7,28,2023,12,52,48,235,2237,-700,3402,3,-14,-15,
1907,7,28,2023,12,52,48,245,2240,-693,3395,4,-15,-12,
1908,7,28,2023,12,52,48,255,2236,-696,3393,7,-14,-10,
1909,7,28,2023,12,52,48,265,2241,-684,3398,5,-14,-6,
1910,7,28,2023,12,52,48,275,2242,-689,3395,0,-12,-2,
1911,7,28,2023,12,52,48,285,2238,-692,3396,0,-8,-3,
1912,7,28,2023,12,52,48,295,2238,-694,3394,0,-7,-1,
1913,7,28,2023,12,52,48,305,2244,-703,3385,-5,-4,-2,
1914,7,28,2023,12,52,48,315,2235,-702,3393,0,-4,1,
1915,7,28,2023,12,52,48,325,2228,-705,3399,0,-9,-4,
1916,7,28,2023,12,52,48,335,2244,-699,3391,2,-7,-3,
1917,7,28,2023,12,52,48,345,2231,-696,3402,2,-7,1,
1918,7,28,2023,12,52,48,355,2253,-698,3389,1,-7,1,
1919,7,28,2023,12,52,48,365,2243,-689,3387,-2,-2,-2,
1920,7,28,2023,12,52,48,375,2243,-701,3384,-1,2,1,
1921,7,28,2023,12,52,48,385,2238,-709,3384,-1,7,4,
1922,7,28,2023,12,52,48,395,2231,-708,3391,2,4,-1,
1923,7,28,2023,12,52,48,405,2232,-711,3390,5,4,-4,
1924,7,28,2023,12,52,48,415,2234,-701,3402,7,3,-4,
1925,7,28,2023,12,52,48,425,2239,-701,3401,9,5,-4,
1926,7,28,2023,12,52,48,435,2246,-696,3398,6,-1,-5,
1927,7,28,2023,12,52,48,445,2241,-694,3396,3,1,-5,
1928,7,28,2023,12,52,48,455,2237,-702,3388,4,1,0,
1929,7,28,2023,12,52,48,465,2239,-700,3394,3,1,3,
1930,7,28,2023,12,52,48,475,2234,-695,3390,4,2,-3,
1931,7,28,2023,12,52,48,485,2240,-691,3387,3,2,-5,
1932,7,28,2023,12,52,48,495,2229,-695,3393,3,-1,-1,
1933,7,28,2023,12,52,48,505,2234,-707,3398,3,1,-5,
1934,7,28,2023,12,52,48,515,2244,-698,3391,4,-3,-2,
1935,7,28,2023,12,52,48,525,2241,-694,3389,-2,-4,-2,
1936,7,28,2023,12,52,48,535,2245,-699,3391,1,-5,-4,
1937,7,28,2023,12,52,48,545,2243,-703,3385,4,-8,-1,
1938,7,28,2023,12,52,48,555,2236,-691,3391,5,-3,-5,
1939,7,28,2023,12,52,48,565,2243,-697,3387,2,-2,-4,
1940,7,28,2023,12,52,48,575,2256,-693,3388,4,0,-1,
1941,7,28,2023,12,52,48,585,2247,-693,3390,6,-3,-6,
1942,7,28,2023,12,52,48,595,2246,-689,3381,7,4,-4,
1943,7,28,2023,12,52,48,605,2244,-689,3386,4,4,0,
1944,7,28,2023,12,52,48,615,2226,-705,3390,5,4,0,
1945,7,28,2023,12,52,48,625,2230,-708,3388,5,9,-1,
1946,7,28,2023,12,52,48,635,2246,-700,3383,9,14,-6,
1947,7,28,2023,12,52,48,645,2243,-695,3382,12,14,-6,
1948,7,28,2023,12,52,48,655,2236,-703,3390,15,15,-3,
1949,7,28,2023,12,52,48,665,2237,-703,3392,17,20,-6,
1950,7,28,2023,12,52,48,675,2242,-703,3390,17,20,-9,
1951,7,28,2023,12,52,48,685,2239,-696,3393,16,14,-7,
1952,7,28,2023,12,52,48,695,2243,-688,3393,13,14,-9,
1953,7,28,2023,12,52,48,705,2237,-689,3401,14,14,-7,
1954,7,28,2023,12,52,48,715,2236,-694,3403,11,13,-5,
1955,7,28,2023,12,52,48,725,2240,-696,3398,10,7,-5,
1956,7,28,2023,12,52,48,745,2242,-685,3400,4,4,-3,
1957,7,28,2023,12,52,48,755,2230,-690,3399,2,4,0,
1958,7,28,2023,12,52,48,765,2238,-684,3394,0,2,2,
1959,7,28,2023,12,52,48,775,2250,-687,3390,1,-1,3,
1960,7,28,2023,12,52,48,785,2247,-691,3386,-4,0,3,
1961,7,28,2023,12,52,48,795,2242,-687,3388,-4,6,3,
1962,7,28,2023,12,52,48,805,2236,-694,3387,-5,10,6,
1963,7,28,2023,12,52,48,815,2234,-700,3384,-1,13,6,
1964,7,28,2023,12,52,48,825,2235,-695,3396,1,14,6,
1965,7,28,2023,12,52,48,835,2242,-688,3403,3,12,3,
1966,7,28,2023,12,52,48,845,2234,-690,3407,-4,8,9,
1967,7,28,2023,12,52,48,855,2239,-690,3395,-6,6,10,
1968,7,28,2023,12,52,48,865,2241,-690,3399,-7,6,9,
1969,7,28,2023,12,52,48,875,2235,-688,3396,-13,3,8,
1970,7,28,2023,12,52,48,885,2237,-691,3402,-11,0,9,
1971,7,28,2023,12,52,48,895,2243,-691,3394,-10,0,8,
1972,7,28,2023,12,52,48,905,2227,-693,3396,-14,-4,12,
1973,7,28,2023,12,52,48,915,2225,-705,3401,-17,-11,13,
1974,7,28,2023,12,52,48,925,2241,-692,3396,-13,-11,13,
1975,7,28,2023,12,52,48,935,2221,-695,3400,-16,-13,13,
1976,7,28,2023,12,52,48,945,2232,-711,3395,-18,-20,10,
1977,7,28,2023,12,52,48,955,2219,-707,3402,-18,-23,13,
1978,7,28,2023,12,52,48,965,2211,-723,3396,-22,-30,9,
1979,7,28,2023,12,52,48,975,2205,-730,3397,-22,-37,8,
1980,7,28,2023,12,52,48,985,2230,-696,3394,-16,-35,2,
1981,7,28,2023,12,52,48,995,2266,-699,3396,-12,-32,-5,
1982,7,28,2023,12,52,49,5,2256,-687,3393,-14,-36,-1,
1983,7,28,2023,12,52,49,15,2256,-687,3385,-22,-42,6,
1984,7,28,2023,12,52,49,25,2243,-694,3387,-26,-39,8,
1985,7,28,2023,12,52,49,35,2262,-685,3377,-23,-35,10,
1986,7,28,2023,12,52,49,45,2266,-686,3375,-21,-29,14,
1987,7,28,2023,12,52,49,55,2266,-672,3369,-22,-17,17,
1988,7,28,2023,12,52,49,65,2292,-596,3407,-35,-12,37,
1989,7,28,2023,12,52,49,75,2280,-613,3414,-67,-12,75,
1990,7,28,2023,12,52,49,85,2244,-725,3398,-88,-14,94,
1991,7,28,2023,12,52,49,95,2244,-739,3387,-82,-21,92,
1992,7,28,2023,12,52,49,105,2232,-748,3371,-74,-26,78,
1993,7,28,2023,12,52,49,115,2224,-774,3369,-60,-24,60,
1994,7,28,2023,12,52,49,125,2242,-765,3366,-43,-22,39,
1995,7,28,2023,12,52,49,135,2246,-739,3371,-29,-17,22,
1996,7,28,2023,12,52,49,145,2248,-726,3380,-19,-13,16,
1997,7,28,2023,12,52,49,155,2248,-715,3381,-12,-8,12,
1998,7,28,2023,12,52,49,165,2224,-724,3374,-7,-5,9,
1999,7,28,2023,12,52,49,175,2177,-806,3399,-5,-5,4,
2000,7,28,2023,12,52,49,185,2179,-821,3406,19,-20,-27,
2001,7,28,2023,12,52,49,195,2204,-757,3406,40,-48,-59,
2002,7,28,2023,12,52,49,205,2150,-788,3419,49,-67,-72,
2003,7,28,2023,12,52,49,215,2136,-807,3411,70,-93,-96,
2004,7,28,2023,12,52,49,225,2103,-918,3406,129,-112,-146,
2005,7,28,2023,12,52,49,235,2255,-846,3418,200,-134,-213,
2006,7,28,2023,12,52,49,245,2350,-598,3417,209,-178,-259,
2007,7,28,2023,12,52,49,255,2304,-628,3418,168,-208,-245,
2008,7,28,2023,12,52,49,265,2294,-655,3396,157,-225,-229,
2009,7,28,2023,12,52,49,275,2314,-644,3376,137,-234,-227,
2010,7,28,2023,12,52,49,285,2335,-591,3350,116,-227,-210,
2011,7,28,2023,12,52,49,295,2322,-602,3342,94,-210,-180,
2012,7,28,2023,12,52,49,305,2313,-653,3351,79,-196,-162,
2013,7,28,2023,12,52,49,315,2279,-692,3372,88,-181,-155,
2014,7,28,2023,12,52,49,325,2298,-636,3368,93,-179,-155,
2015,7,28,2023,12,52,49,335,2343,-608,3364,75,-194,-149,
2016,7,28,2023,12,52,49,345,2357,-600,3353,55,-205,-130,
2017,7,28,2023,12,52,49,355,2342,-597,3373,40,-209,-107,
2018,7,28,2023,12,52,49,365,2352,-586,3358,26,-212,-88,
2019,7,28,2023,12,52,49,375,2345,-574,3355,0,-204,-71,
2020,7,28,2023,12,52,49,385,2350,-614,3334,-38,-198,-51,
2021,7,28,2023,12,52,49,395,2350,-572,3331,-41,-193,-35,
2022,7,28,2023,12,52,49,405,2350,-630,3307,-53,-181,-22,
2023,7,28,2023,12,52,49,415,2348,-663,3307,-44,-161,-13,
2024,7,28,2023,12,52,49,425,2376,-671,3295,-21,-144,-12,
2025,7,28,2023,12,52,49,435,2360,-681,3291,-2,-115,-18,
2026,7,28,2023,12,52,49,445,2341,-718,3292,24,-81,-24,
2027,7,28,2023,12,52,49,455,2324,-732,3317,44,-59,-40,
2028,7,28,2023,12,52,49,465,2327,-707,3338,61,-71,-62,
2029,7,28,2023,12,52,49,475,2342,-681,3345,70,-89,-82,
2030,7,28,2023,12,52,49,485,2339,-657,3361,65,-97,-96,
2031,7,28,2023,12,52,49,495,2330,-639,3396,52,-108,-106,
2032,7,28,2023,12,52,49,505,2358,-611,3380,53,-139,-107,
2033,7,28,2023,12,52,49,515,2355,-615,3373,52,-158,-100,
2034,7,28,2023,12,52,49,525,2359,-606,3345,60,-173,-97,
2035,7,28,2023,12,52,49,535,2360,-600,3330,58,-179,-88,
2036,7,28,2023,12,52,49,545,2363,-608,3307,52,-182,-76,
2037,7,28,2023,12,52,49,555,2352,-616,3310,41,-186,-71,
2038,7,28,2023,12,52,49,565,2363,-601,3326,17,-192,-72,
2039,7,28,2023,12,52,49,575,2364,-585,3332,-15,-198,-74,
2040,7,28,2023,12,52,49,585,2372,-594,3322,-40,-211,-78,
2041,7,28,2023,12,52,49,605,2407,-678,3290,-15,-214,-83,
2042,7,28,2023,12,52,49,615,2419,-619,3276,6,-193,-89,
2043,7,28,2023,12,52,49,625,2420,-591,3244,12,-172,-86,
2044,7,28,2023,12,52,49,635,2410,-555,3212,6,-136,-77,
2045,7,28,2023,12,52,49,645,2416,-493,3196,-7,-82,-66,
2046,7,28,2023,12,52,49,655,2437,-417,3170,-32,-18,-19,
2047,7,28,2023,12,52,49,665,2442,-416,3122,-56,62,59,
2048,7,28,2023,12,52,49,675,2451,-436,3131,-86,161,137,
2049,7,28,2023,12,52,49,685,2470,-500,3155,-86,252,224,
2050,7,28,2023,12,52,49,695,2445,-711,3172,-52,332,299,
2051,7,28,2023,12,52,49,705,2416,-731,3201,-26,397,301,
2052,7,28,2023,12,52,49,715,2348,-719,3252,-20,462,276,
2053,7,28,2023,12,52,49,725,2324,-895,3278,23,517,233,
2054,7,28,2023,12,52,49,735,2344,-755,3304,82,555,143,
2055,7,28,2023,12,52,49,745,2377,-588,3276,110,565,106,
2056,7,28,2023,12,52,49,755,2377,-600,3304,142,598,130,
2057,7,28,2023,12,52,49,765,2372,-480,3385,148,636,145,
2058,7,28,2023,12,52,49,775,2372,-456,3431,122,613,192,
2059,7,28,2023,12,52,49,785,2342,-641,3389,104,585,243,
2060,7,28,2023,12,52,49,795,2278,-725,3400,117,579,236,
2061,7,28,2023,12,52,49,805,2262,-638,3438,109,552,207,
2062,7,28,2023,12,52,49,815,2251,-747,3448,110,511,193,
2063,7,28,2023,12,52,49,825,2234,-778,3442,125,460,132,
2064,7,28,2023,12,52,49,835,2226,-661,3476,145,423,72,
2065,7,28,2023,12,52,49,845,2169,-639,3514,127,376,61,
2066,7,28,2023,12,52,49,855,2139,-722,3558,104,303,45,
2067,7,28,2023,12,52,49,865,2161,-711,3542,86,215,0,
2068,7,28,2023,12,52,49,875,2189,-625,3507,62,145,-29,
2069,7,28,2023,12,52,49,885,2169,-647,3509,32,91,-29,
2070,7,28,2023,12,52,49,895,2186,-633,3507,14,30,-33,
2071,7,28,2023,12,52,49,905,2200,-630,3480,-3,-18,-36,
2072,7,28,2023,12,52,49,915,2199,-669,3453,-14,-49,-33,
2073,7,28,2023,12,52,49,925,2211,-681,3427,-15,-72,-44,
2074,7,28,2023,12,52,49,935,2216,-697,3393,-5,-78,-67,
2075,7,28,2023,12,52,49,945,2213,-711,3390,13,-72,-89,
2076,7,28,2023,12,52,49,955,2178,-725,3398,34,-64,-115,
2077,7,28,2023,12,52,49,965,2193,-705,3403,55,-65,-152,
2078,7,28,2023,12,52,49,975,2229,-687,3394,73,-72,-186,
2079,7,28,2023,12,52,49,985,2246,-628,3395,94,-62,-213,
2080,7,28,2023,12,52,49,995,2254,-580,3400,101,-49,-219,
2081,7,28,2023,12,52,50,5,2240,-612,3397,102,-49,-208,
2082,7,28,2023,12,52,50,15,2233,-674,3385,106,-42,-217,
2083,7,28,2023,12,52,50,25,2214,-666,3398,122,-30,-248,
2084,7,28,2023,12,52,50,35,2228,-622,3427,128,-34,-276,
2085,7,28,2023,12,52,50,45,2225,-612,3449,122,-54,-292,
2086,7,28,2023,12,52,50,55,2235,-621,3450,115,-86,-306,
2087,7,28,2023,12,52,50,65,2246,-563,3477,113,-121,-327,
2088,7,28,2023,12,52,50,75,2229,-593,3446,109,-164,-331,
2089,7,28,2023,12,52,50,85,2242,-635,3402,120,-194,-343,
2090,7,28,2023,12,52,50,95,2246,-560,3429,141,-200,-362,
2091,7,28,2023,12,52,50,105,2254,-472,3467,144,-233,-358,
2092,7,28,2023,12,52,50,115,2236,-515,3468,118,-289,-345,
2093,7,28,2023,12,52,50,125,2323,-506,3482,92,-338,-346,
2094,7,28,2023,12,52,50,135,2310,-383,3546,86,-413,-335,
2095,7,28,2023,12,52,50,145,2269,-572,3489,43,-499,-307,
2096,7,28,2023,12,52,50,155,2297,-570,3481,16,-561,-330,
2097,7,28,2023,12,52,50,165,2311,-482,3506,17,-624,-342,
2098,7,28,2023,12,52,50,175,2322,-561,3481,33,-706,-343,
2099,7,28,2023,12,52,50,185,2329,-199,3646,153,-808,-340,
2100,7,28,2023,12,52,50,195,2325,-407,3672,142,-977,-254,
2101,7,28,2023,12,52,50,205,2272,-639,3710,104,-1169,-230,
2102,7,28,2023,12,52,50,215,2307,-760,3643,64,-1365,-300,
2103,7,28,2023,12,52,50,225,2371,-598,3677,93,-1552,-386,
2104,7,28,2023,12,52,50,235,2366,-649,3676,109,-1762,-431,
2105,7,28,2023,12,52,50,245,2359,-679,3624,123,-1977,-490,
2106,7,28,2023,12,52,50,255,2373,-642,3629,137,-2196,-559,
2107,7,28,2023,12,52,50,265,2394,-584,3704,194,-2448,-601,
2108,7,28,2023,12,52,50,275,2392,-669,3844,264,-2765,-630,
2109,7,28,2023,12,52,50,285,2459,-773,3924,386,-3165,-684,
2110,7,28,2023,12,52,50,295,2476,-1023,3915,586,-3630,-794,
2111,7,28,2023,12,52,50,305,2508,-837,4033,898,-4132,-992,
2112,7,28,2023,12,52,50,315,2451,-711,4168,1077,-4715,-1185,
2113,7,28,2023,12,52,50,325,2532,-878,4430,1073,-5390,-1359,
2114,7,28,2023,12,52,50,335,2475,-1036,4487,968,-6083,-1610,
2115,7,28,2023,12,52,50,345,2494,-1367,4447,756,-6779,-2005,
2116,7,28,2023,12,52,50,355,2447,-1617,4289,922,-7386,-2619,
2117,7,28,2023,12,52,50,365,2714,-2841,3822,1495,-7927,-3474,
2118,7,28,2023,12,52,50,375,3208,-4035,3056,2829,-8287,-4626,
2119,7,28,2023,12,52,50,385,4105,-4390,2745,4535,-8650,-5935,
2120,7,28,2023,12,52,50,395,5200,-3745,2862,5891,-8626,-7097,
2121,7,28,2023,12,52,50,405,5850,-3284,2537,6228,-8044,-7866,
2122,7,28,2023,12,52,50,415,6946,-4788,3126,6836,-7284,-9177,
2123,7,28,2023,12,52,50,425,8047,-4469,3691,8143,-5854,-9619,
2124,7,28,2023,12,52,50,435,6153,-3673,3820,8869,-4582,-9924,
2125,7,28,2023,12,52,50,445,3632,-4826,3611,9451,-3903,-9376,
2126,7,28,2023,12,52,50,465,7976,-3163,1937,13971,-4105,-4720,
2127,7,28,2023,12,52,50,475,9642,-2378,4801,11151,-2848,2330,
2128,7,28,2023,12,52,50,485,5551,-5089,3577,8198,-438,6696,
2129,7,28,2023,12,52,50,495,3194,-4583,2773,8540,917,7964,
2130,7,28,2023,12,52,50,505,2438,-2463,2732,9475,1619,7864,
2131,7,28,2023,12,52,50,515,1552,-1084,2854,9337,2120,7607,
2132,7,28,2023,12,52,50,525,949,131,3149,8245,2329,7233,
2133,7,28,2023,12,52,50,535,1142,-209,3289,6259,2436,6770,
2134,7,28,2023,12,52,50,545,1448,-1862,3126,4790,2937,5985,
2135,7,28,2023,12,52,50,555,1573,-2410,3280,4878,3960,4839,
2136,7,28,2023,12,52,50,565,1929,-1508,3604,5306,5288,3790,
2137,7,28,2023,12,52,50,575,1875,-959,3710,4856,6714,3255,
2138,7,28,2023,12,52,50,585,1678,-1523,3432,3762,7932,3061,
2139,7,28,2023,12,52,50,595,1567,-2700,2719,3022,8856,2894,
2140,7,28,2023,12,52,50,605,1498,-3337,2317,3164,9561,2768,
2141,7,28,2023,12,52,50,615,1975,-3287,2168,3718,9912,2846,
2142,7,28,2023,12,52,50,625,2128,-3282,2012,4012,10045,3200,
2143,7,28,2023,12,52,50,635,2235,-3666,1857,3963,9870,3724,
2144,7,28,2023,12,52,50,645,2776,-4329,1806,3878,9430,4258,
2145,7,28,2023,12,52,50,655,3786,-4940,2084,3934,8999,4857,
2146,7,28,2023,12,52,50,665,4897,-5161,2433,3994,8846,5634,
2147,7,28,2023,12,52,50,675,5453,-5394,2359,3880,8974,6557,
2148,7,28,2023,12,52,50,685,5703,-5682,2035,3795,8989,7373,
2149,7,28,2023,12,52,50,695,6337,-6014,1846,3932,8693,7979,
2150,7,28,2023,12,52,50,705,7215,-6321,1867,4237,8343,8501,
2151,7,28,2023,12,52,50,715,7811,-6600,1855,4508,8118,9102,
2152,7,28,2023,12,52,50,725,7981,-7016,1619,4741,7900,9834,
2153,7,28,2023,12,52,50,735,7789,-7226,1359,5134,7485,10621,
2154,7,28,2023,12,52,50,745,7521,-6828,1498,5518,6778,11346,
2155,7,28,2023,12,52,50,755,7370,-6080,1921,5416,5881,11943,
2156,7,28,2023,12,52,50,765,7448,-5521,2246,4676,5040,12266,
2157,7,28,2023,12,52,50,775,7895,-5276,2501,3535,4373,12318,
2158,7,28,2023,12,52,50,785,8553,-5286,2375,2363,4010,12276,
2159,7,28,2023,12,52,50,795,8873,-5720,1948,1648,4032,12154,
2160,7,28,2023,12,52,50,805,8493,-5646,1576,1654,4281,11792,
2161,7,28,2023,12,52,50,815,7728,-4901,1536,1872,4471,11123,
2162,7,28,2023,12,52,50,825,7243,-4132,1742,1673,4470,10320,
2163,7,28,2023,12,52,50,835,7104,-3780,1918,1092,4397,9598,
2164,7,28,2023,12,52,50,845,6750,-3672,1729,521,4419,9021,
2165,7,28,2023,12,52,50,855,6357,-3268,1190,145,4398,8460,
2166,7,28,2023,12,52,50,865,6380,-1911,725,-263,4106,7911,
2167,7,28,2023,12,52,50,875,6521,-609,392,-1297,3504,7489,
2168,7,28,2023,12,52,50,885,7327,-230,206,-2464,2587,7284,
2169,7,28,2023,12,52,50,895,8655,-768,-281,-2694,1614,7384,
2170,7,28,2023,12,52,50,905,8871,-1843,-1468,-1355,956,7613,
2171,7,28,2023,12,52,50,915,8628,-160,-2025,920,272,7422,
2172,7,28,2023,12,52,50,925,8573,1513,-1906,1466,-722,6872,
2173,7,28,2023,12,52,50,935,8674,345,-2007,418,-1707,6240,
2174,7,28,2023,12,52,50,945,8064,-883,-1851,405,-2369,5627,
2175,7,28,2023,12,52,50,955,7013,-604,-1106,1530,-2977,5174,
2176,7,28,2023,12,52,50,965,6368,-668,-405,2150,-3604,4935,
2177,7,28,2023,12,52,50,975,5806,-1282,139,2151,-3982,4722,
2178,7,28,2023,12,52,50,985,5278,-1571,753,2023,-4077,4470,
2179,7,28,2023,12,52,50,995,1377,-1824,2102,1834,-4216,4275,
2180,7,28,2023,12,52,51,5,-3078,-963,4207,1311,-6302,4167,
2181,7,28,2023,12,52,51,15,-902,-738,5684,1884,-8356,3780,
2182,7,28,2023,12,52,51,25,4650,2075,6247,1971,-8478,2084,
2183,7,28,2023,12,52,51,35,8481,5180,7700,1063,-7801,392,
2184,7,28,2023,12,52,51,45,8606,3294,8358,-398,-5858,-980,
2185,7,28,2023,12,52,51,55,4876,-445,6189,-1400,-3143,-2387,
2186,7,28,2023,12,52,51,65,2972,-3536,3460,-1525,-2148,-2686,
