Packet #, Month, Day, Year, Hour, Minute, Second, MS, ACC X, ACC Y, ACC Z, GYR X, GYR Y, GYR Z
1,7,27,2023,12,19,45,565,-1707,835,3647,-18,-35,4,
2,7,27,2023,12,19,45,575,-1712,823,3640,-19,-44,4,
3,7,27,2023,12,19,45,585,-1702,841,3634,-16,-50,11,
4,7,27,2023,12,19,45,595,-1684,835,3639,-12,-51,13,
5,7,27,2023,12,19,45,605,-1699,821,3644,-10,-48,17,
6,7,27,2023,12,19,45,615,-1694,819,3641,-4,-48,20,
7,7,27,2023,12,19,45,625,-1691,820,3640,3,-44,27,
8,7,27,2023,12,19,45,635,-1693,813,3631,7,-46,31,
9,7,27,2023,12,19,45,645,-1680,818,3635,20,-50,37,
10,7,27,2023,12,19,45,655,-1685,816,3646,28,-52,40,
11,7,27,2023,12,19,45,665,-1676,852,3637,33,-50,44,
12,7,27,2023,12,19,45,675,-1681,859,3635,27,-44,42,
13,7,27,2023,12,19,45,685,-1667,861,3637,27,-41,42,
14,7,27,2023,12,19,45,695,-1678,861,3639,21,-40,37,
15,7,27,2023,12,19,45,705,-1690,846,3637,12,-39,35,
16,7,27,2023,12,19,45,715,-1664,852,3636,13,-38,35,
17,7,27,2023,12,19,45,725,-1652,867,3639,12,-31,31,
18,7,27,2023,12,19,45,735,-1671,843,3649,10,-18,23,
19,7,27,2023,12,19,45,745,-1680,841,3651,15,-10,23,
20,7,27,2023,12,19,45,755,-1707,803,3645,23,-8,29,
21,7,27,2023,12,19,45,765,-1690,804,3642,39,-15,40,
22,7,27,2023,12,19,45,775,-1687,816,3636,57,-25,48,
23,7,27,2023,12,19,45,785,-1669,851,3634,70,-33,52,
24,7,27,2023,12,19,45,795,-1655,898,3629,67,-33,49,
25,7,27,2023,12,19,45,805,-1680,884,3626,45,-33,40,
26,7,27,2023,12,19,45,815,-1676,877,3632,31,-42,35,
27,7,27,2023,12,19,45,825,-1675,858,3628,22,-53,34,
28,7,27,2023,12,19,45,835,-1639,850,3616,20,-63,31,
29,7,27,2023,12,19,45,845,-1634,848,3633,19,-57,30,
30,7,27,2023,12,19,45,855,-1648,847,3641,25,-47,31,
31,7,27,2023,12,19,45,865,-1652,872,3643,32,-35,34,
32,7,27,2023,12,19,45,875,-1653,891,3633,28,-23,30,
33,7,27,2023,12,19,45,885,-1653,856,3629,22,-16,25,
34,7,27,2023,12,19,45,895,-1625,859,3621,22,-14,23,
35,7,27,2023,12,19,45,905,-1628,915,3623,14,-7,15,
36,7,27,2023,12,19,45,915,-1639,879,3632,-3,6,0,
37,7,27,2023,12,19,45,925,-1658,882,3634,-15,14,-8,
38,7,27,2023,12,19,45,935,-1677,870,3638,-28,13,-15,
39,7,27,2023,12,19,45,945,-1680,856,3646,-31,10,-17,
40,7,27,2023,12,19,45,955,-1653,855,3622,-27,1,-15,
41,7,27,2023,12,19,45,965,-1628,882,3619,-22,5,-22,
42,7,27,2023,12,19,45,975,-1623,878,3640,-27,22,-27,
43,7,27,2023,12,19,45,985,-1633,883,3644,-34,41,-38,
44,7,27,2023,12,19,45,995,-1656,859,3647,-36,51,-39,
45,7,27,2023,12,19,46,5,-1692,858,3643,-40,54,-39,
46,7,27,2023,12,19,46,15,-1690,835,3635,-38,44,-33,
47,7,27,2023,12,19,46,25,-1657,832,3637,-32,37,-35,
48,7,27,2023,12,19,46,35,-1661,777,3647,-19,42,-32,
49,7,27,2023,12,19,46,45,-1668,812,3651,2,49,-14,
50,7,27,2023,12,19,46,55,-1676,857,3651,21,53,-4,
51,7,27,2023,12,19,46,65,-1687,860,3656,22,56,-3,
52,7,27,2023,12,19,46,75,-1689,885,3637,22,57,-2,
53,7,27,2023,12,19,46,85,-1672,867,3626,21,60,-3,
54,7,27,2023,12,19,46,95,-1672,864,3637,16,69,-11,
55,7,27,2023,12,19,46,105,-1707,781,3641,21,71,-10,
56,7,27,2023,12,19,46,115,-1713,717,3652,58,65,10,
57,7,27,2023,12,19,46,125,-1691,822,3640,101,47,46,
58,7,27,2023,12,19,46,135,-1675,883,3638,112,38,62,
59,7,27,2023,12,19,46,145,-1682,921,3634,103,43,57,
60,7,27,2023,12,19,46,155,-1687,917,3620,78,40,52,
61,7,27,2023,12,19,46,165,-1671,905,3627,60,32,39,
62,7,27,2023,12,19,46,175,-1661,900,3626,45,30,24,
63,7,27,2023,12,19,46,185,-1676,864,3624,26,31,11,
64,7,27,2023,12,19,46,195,-1680,848,3633,26,31,10,
65,7,27,2023,12,19,46,205,-1699,847,3636,34,28,15,
66,7,27,2023,12,19,46,215,-1697,854,3631,39,18,27,
67,7,27,2023,12,19,46,225,-1690,868,3627,42,9,34,
68,7,27,2023,12,19,46,235,-1681,875,3623,44,3,35,
69,7,27,2023,12,19,46,245,-1673,880,3629,42,-1,28,
70,7,27,2023,12,19,46,255,-1688,885,3625,37,1,24,
71,7,27,2023,12,19,46,265,-1674,874,3617,34,-5,24,
72,7,27,2023,12,19,46,275,-1647,893,3611,35,-7,21,
73,7,27,2023,12,19,46,285,-1654,882,3625,25,1,12,
74,7,27,2023,12,19,46,295,-1676,857,3637,26,8,17,
75,7,27,2023,12,19,46,305,-1676,906,3622,26,12,18,
76,7,27,2023,12,19,46,315,-1696,902,3621,13,10,16,
77,7,27,2023,12,19,46,325,-1683,913,3617,-2,-4,10,
78,7,27,2023,12,19,46,335,-1696,903,3618,-27,-18,1,
79,7,27,2023,12,19,46,345,-1675,892,3625,-51,-32,-4,
80,7,27,2023,12,19,46,355,-1679,874,3640,-53,-35,-8,
81,7,27,2023,12,19,46,365,-1682,863,3644,-48,-31,-7,
82,7,27,2023,12,19,46,375,-1664,882,3638,-41,-20,-9,
83,7,27,2023,12,19,46,385,-1687,883,3631,-36,-13,-11,
84,7,27,2023,12,19,46,395,-1692,869,3632,-29,-12,-4,
85,7,27,2023,12,19,46,405,-1667,871,3618,-28,-18,-5,
86,7,27,2023,12,19,46,425,-1673,882,3639,-34,-23,-12,
87,7,27,2023,12,19,46,435,-1659,873,3635,-35,-11,-14,
88,7,27,2023,12,19,46,445,-1659,891,3635,-36,-1,-15,
89,7,27,2023,12,19,46,455,-1685,882,3640,-37,8,-14,
90,7,27,2023,12,19,46,465,-1685,870,3629,-40,6,-15,
91,7,27,2023,12,19,46,475,-1673,872,3621,-44,4,-19,
92,7,27,2023,12,19,46,485,-1665,871,3624,-46,4,-17,
93,7,27,2023,12,19,46,495,-1684,859,3630,-46,2,-19,
94,7,27,2023,12,19,46,505,-1671,866,3630,-43,6,-20,
95,7,27,2023,12,19,46,515,-1671,876,3637,-39,12,-18,
96,7,27,2023,12,19,46,525,-1679,869,3642,-41,13,-19,
97,7,27,2023,12,19,46,535,-1677,882,3625,-47,19,-25,
98,7,27,2023,12,19,46,545,-1692,856,3632,-48,15,-19,
99,7,27,2023,12,19,46,555,-1686,857,3635,-48,5,-21,
100,7,27,2023,12,19,46,565,-1684,848,3636,-50,0,-26,
101,7,27,2023,12,19,46,575,-1687,856,3626,-47,-10,-21,
102,7,27,2023,12,19,46,585,-1687,845,3631,-49,-15,-22,
103,7,27,2023,12,19,46,595,-1674,844,3628,-50,-20,-20,
104,7,27,2023,12,19,46,605,-1657,865,3625,-50,-22,-22,
105,7,27,2023,12,19,46,615,-1657,869,3631,-53,-11,-29,
106,7,27,2023,12,19,46,625,-1663,857,3642,-55,5,-32,
107,7,27,2023,12,19,46,635,-1672,859,3636,-53,16,-38,
108,7,27,2023,12,19,46,645,-1679,851,3639,-54,23,-40,
109,7,27,2023,12,19,46,655,-1679,840,3636,-54,24,-37,
110,7,27,2023,12,19,46,665,-1674,829,3629,-48,26,-36,
111,7,27,2023,12,19,46,675,-1673,833,3637,-40,28,-36,
112,7,27,2023,12,19,46,685,-1689,825,3641,-38,27,-32,
113,7,27,2023,12,19,46,695,-1678,830,3640,-33,27,-27,
114,7,27,2023,12,19,46,705,-1684,844,3638,-30,25,-24,
115,7,27,2023,12,19,46,715,-1687,831,3632,-31,22,-28,
116,7,27,2023,12,19,46,725,-1672,847,3618,-30,14,-28,
117,7,27,2023,12,19,46,735,-1674,839,3636,-29,21,-32,
118,7,27,2023,12,19,46,745,-1687,817,3635,-17,21,-30,
119,7,27,2023,12,19,46,755,-1678,821,3643,-14,29,-27,
120,7,27,2023,12,19,46,765,-1682,829,3643,-11,36,-23,
121,7,27,2023,12,19,46,775,-1688,821,3642,-6,33,-16,
122,7,27,2023,12,19,46,785,-1680,838,3616,-4,27,-13,
123,7,27,2023,12,19,46,795,-1622,864,3621,-8,30,-23,
124,7,27,2023,12,19,46,805,-1670,858,3643,-3,37,-34,
125,7,27,2023,12,19,46,815,-1691,821,3646,-8,53,-41,
126,7,27,2023,12,19,46,825,-1686,824,3641,-1,58,-38,
127,7,27,2023,12,19,46,835,-1689,832,3637,-1,64,-36,
128,7,27,2023,12,19,46,845,-1681,838,3623,-2,62,-34,
129,7,27,2023,12,19,46,855,-1680,829,3625,3,56,-35,
130,7,27,2023,12,19,46,865,-1701,835,3631,0,54,-39,
131,7,27,2023,12,19,46,875,-1692,838,3640,-2,48,-38,
132,7,27,2023,12,19,46,885,-1705,829,3638,-1,48,-33,
133,7,27,2023,12,19,46,895,-1714,813,3630,-6,45,-33,
134,7,27,2023,12,19,46,905,-1709,812,3631,-7,37,-26,
135,7,27,2023,12,19,46,915,-1717,820,3637,-3,31,-19,
136,7,27,2023,12,19,46,925,-1722,820,3643,1,21,-15,
137,7,27,2023,12,19,46,935,-1709,828,3636,-6,8,-10,
138,7,27,2023,12,19,46,945,-1690,833,3625,-8,1,-8,
139,7,27,2023,12,19,46,955,-1689,837,3628,-7,-2,-10,
140,7,27,2023,12,19,46,965,-1700,838,3630,-7,2,-12,
141,7,27,2023,12,19,46,975,-1704,815,3634,-4,7,-9,
142,7,27,2023,12,19,46,985,-1707,831,3634,1,10,-3,
143,7,27,2023,12,19,46,995,-1692,826,3631,0,14,-2,
144,7,27,2023,12,19,47,5,-1705,828,3635,-1,13,-2,
145,7,27,2023,12,19,47,15,-1714,823,3623,-4,7,-2,
146,7,27,2023,12,19,47,25,-1694,824,3619,-5,2,-1,
147,7,27,2023,12,19,47,35,-1671,838,3624,-1,1,-3,
148,7,27,2023,12,19,47,45,-1690,848,3635,-1,4,-12,
149,7,27,2023,12,19,47,55,-1702,827,3635,-2,14,-17,
150,7,27,2023,12,19,47,65,-1690,829,3636,-1,21,-12,
151,7,27,2023,12,19,47,75,-1697,834,3635,-2,27,-14,
152,7,27,2023,12,19,47,85,-1702,835,3628,-5,25,-18,
153,7,27,2023,12,19,47,95,-1700,837,3628,-12,24,-20,
154,7,27,2023,12,19,47,105,-1708,819,3631,-13,18,-20,
155,7,27,2023,12,19,47,115,-1714,812,3629,-11,14,-19,
156,7,27,2023,12,19,47,125,-1716,808,3625,-7,11,-11,
157,7,27,2023,12,19,47,135,-1698,813,3623,-4,5,-6,
158,7,27,2023,12,19,47,145,-1694,828,3621,-7,6,-11,
159,7,27,2023,12,19,47,155,-1692,828,3624,-7,1,-13,
160,7,27,2023,12,19,47,165,-1698,836,3635,-5,5,-15,
161,7,27,2023,12,19,47,175,-1692,839,3637,-8,11,-22,
162,7,27,2023,12,19,47,185,-1709,815,3628,-4,18,-22,
163,7,27,2023,12,19,47,195,-1712,820,3628,-2,23,-19,
164,7,27,2023,12,19,47,205,-1702,818,3618,-7,23,-14,
165,7,27,2023,12,19,47,215,-1707,828,3629,-6,19,-16,
166,7,27,2023,12,19,47,225,-1717,816,3625,-6,18,-12,
167,7,27,2023,12,19,47,235,-1701,807,3628,-10,11,-9,
168,7,27,2023,12,19,47,245,-1708,820,3629,-10,10,-9,
169,7,27,2023,12,19,47,255,-1708,826,3629,-10,4,-5,
170,7,27,2023,12,19,47,265,-1704,828,3626,-9,5,-1,
171,7,27,2023,12,19,47,285,-1699,826,3631,-6,13,-4,
172,7,27,2023,12,19,47,295,-1719,801,3632,-6,15,-5,
173,7,27,2023,12,19,47,305,-1702,820,3622,-6,10,0,
174,7,27,2023,12,19,47,315,-1704,832,3617,-7,6,0,
175,7,27,2023,12,19,47,325,-1712,805,3627,-8,5,-1,
176,7,27,2023,12,19,47,335,-1713,813,3632,-6,-2,2,
177,7,27,2023,12,19,47,345,-1726,813,3632,-8,-6,4,
178,7,27,2023,12,19,47,355,-1714,815,3627,-9,-15,7,
179,7,27,2023,12,19,47,365,-1700,819,3618,-5,-16,8,
180,7,27,2023,12,19,47,375,-1693,819,3625,-1,-12,7,
181,7,27,2023,12,19,47,385,-1693,818,3622,-1,-11,0,
182,7,27,2023,12,19,47,395,-1694,825,3625,-2,-4,-5,
183,7,27,2023,12,19,47,405,-1702,822,3631,-1,5,-3,
184,7,27,2023,12,19,47,415,-1701,807,3627,0,5,-3,
185,7,27,2023,12,19,47,425,-1699,825,3618,-5,3,-4,
186,7,27,2023,12,19,47,435,-1690,819,3623,-6,0,-9,
187,7,27,2023,12,19,47,445,-1690,817,3629,-7,-2,-11,
188,7,27,2023,12,19,47,455,-1703,790,3621,-1,2,-9,
189,7,27,2023,12,19,47,465,-1698,799,3626,11,0,-13,
190,7,27,2023,12,19,47,475,-1696,812,3621,12,4,-13,
191,7,27,2023,12,19,47,485,-1694,837,3627,12,6,-12,
192,7,27,2023,12,19,47,495,-1714,810,3625,10,4,-16,
193,7,27,2023,12,19,47,505,-1698,823,3628,13,5,-13,
194,7,27,2023,12,19,47,515,-1705,829,3635,11,11,-16,
195,7,27,2023,12,19,47,525,-1697,824,3628,12,17,-17,
196,7,27,2023,12,19,47,535,-1699,821,3630,11,25,-18,
197,7,27,2023,12,19,47,545,-1699,824,3627,10,30,-25,
198,7,27,2023,12,19,47,555,-1707,813,3622,14,35,-20,
199,7,27,2023,12,19,47,565,-1699,801,3626,14,34,-24,
200,7,27,2023,12,19,47,575,-1726,808,3621,13,36,-19,
201,7,27,2023,12,19,47,585,-1727,807,3620,22,30,-16,
202,7,27,2023,12,19,47,595,-1715,811,3618,24,21,-13,
203,7,27,2023,12,19,47,605,-1713,810,3637,29,15,-10,
204,7,27,2023,12,19,47,615,-1717,794,3635,33,16,-9,
205,7,27,2023,12,19,47,625,-1709,831,3629,37,19,-1,
206,7,27,2023,12,19,47,635,-1700,833,3629,36,19,0,
207,7,27,2023,12,19,47,645,-1686,840,3622,32,22,-2,
208,7,27,2023,12,19,47,655,-1695,837,3626,30,36,-4,
209,7,27,2023,12,19,47,665,-1708,836,3626,27,51,-9,
210,7,27,2023,12,19,47,675,-1713,840,3630,28,57,-12,
211,7,27,2023,12,19,47,685,-1725,829,3626,27,62,-15,
212,7,27,2023,12,19,47,695,-1727,829,3623,24,55,-19,
213,7,27,2023,12,19,47,705,-1733,814,3625,19,44,-13,
214,7,27,2023,12,19,47,715,-1723,820,3620,22,35,-4,
215,7,27,2023,12,19,47,725,-1725,817,3610,15,26,-2,
216,7,27,2023,12,19,47,735,-1704,831,3615,15,20,-4,
217,7,27,2023,12,19,47,745,-1699,839,3616,11,22,-9,
218,7,27,2023,12,19,47,755,-1707,833,3617,9,32,-17,
219,7,27,2023,12,19,47,765,-1705,837,3624,10,38,-20,
220,7,27,2023,12,19,47,775,-1723,827,3626,10,49,-20,
221,7,27,2023,12,19,47,785,-1731,823,3630,9,50,-18,
222,7,27,2023,12,19,47,795,-1734,816,3624,4,42,-17,
223,7,27,2023,12,19,47,805,-1723,816,3612,4,37,-15,
224,7,27,2023,12,19,47,815,-1715,808,3607,9,28,-12,
225,7,27,2023,12,19,47,825,-1726,811,3620,12,24,-10,
226,7,27,2023,12,19,47,835,-1733,807,3619,19,21,-12,
227,7,27,2023,12,19,47,845,-1731,813,3626,27,18,-10,
228,7,27,2023,12,19,47,855,-1730,823,3618,31,17,-2,
229,7,27,2023,12,19,47,865,-1718,830,3622,29,14,4,
230,7,27,2023,12,19,47,875,-1734,836,3619,21,6,5,
231,7,27,2023,12,19,47,885,-1747,827,3622,18,1,9,
232,7,27,2023,12,19,47,895,-1720,841,3611,17,-6,15,
233,7,27,2023,12,19,47,905,-1710,852,3614,14,-12,13,
234,7,27,2023,12,19,47,915,-1713,841,3617,12,-10,6,
235,7,27,2023,12,19,47,925,-1707,833,3614,15,-1,3,
236,7,27,2023,12,19,47,935,-1703,839,3624,18,16,1,
237,7,27,2023,12,19,47,945,-1717,849,3627,13,35,-4,
238,7,27,2023,12,19,47,955,-1730,837,3615,11,46,-8,
239,7,27,2023,12,19,47,965,-1734,828,3612,8,45,-6,
240,7,27,2023,12,19,47,975,-1706,857,3601,4,34,-3,
241,7,27,2023,12,19,47,985,-1687,840,3615,0,33,-16,
242,7,27,2023,12,19,47,995,-1651,849,3591,7,48,-21,
243,7,27,2023,12,19,48,5,-1665,874,3632,4,83,-34,
244,7,27,2023,12,19,48,15,-1717,851,3615,-12,110,-50,
245,7,27,2023,12,19,48,25,-1741,821,3616,-10,126,-55,
246,7,27,2023,12,19,48,35,-1760,804,3615,-7,131,-51,
247,7,27,2023,12,19,48,45,-1777,807,3611,-8,121,-46,
248,7,27,2023,12,19,48,55,-1790,807,3607,-8,103,-32,
249,7,27,2023,12,19,48,65,-1760,814,3604,-12,78,-28,
250,7,27,2023,12,19,48,75,-1764,827,3607,-16,52,-29,
251,7,27,2023,12,19,48,85,-1755,824,3606,-20,38,-31,
252,7,27,2023,12,19,48,95,-1740,841,3616,-16,30,-32,
253,7,27,2023,12,19,48,105,-1765,825,3615,-21,28,-35,
254,7,27,2023,12,19,48,115,-1762,805,3609,-22,32,-36,
255,7,27,2023,12,19,48,125,-1758,791,3613,-14,35,-30,
256,7,27,2023,12,19,48,145,-1780,805,3606,-3,17,-3,
257,7,27,2023,12,19,48,155,-1788,807,3606,4,4,2,
258,7,27,2023,12,19,48,165,-1761,820,3581,4,-11,9,
259,7,27,2023,12,19,48,175,-1740,836,3599,3,-20,0,
260,7,27,2023,12,19,48,185,-1753,823,3617,0,-20,-1,
261,7,27,2023,12,19,48,195,-1755,816,3617,2,-16,2,
262,7,27,2023,12,19,48,205,-1752,817,3617,2,-18,5,
263,7,27,2023,12,19,48,215,-1755,810,3609,2,-21,10,
264,7,27,2023,12,19,48,225,-1759,809,3607,4,-27,17,
265,7,27,2023,12,19,48,235,-1769,813,3610,6,-33,22,
266,7,27,2023,12,19,48,245,-1755,829,3606,7,-41,25,
267,7,27,2023,12,19,48,255,-1750,832,3611,9,-49,26,
268,7,27,2023,12,19,48,265,-1765,815,3619,8,-63,32,
269,7,27,2023,12,19,48,275,-1770,807,3634,6,-75,43,
270,7,27,2023,12,19,48,285,-1788,806,3636,12,-84,54,
271,7,27,2023,12,19,48,295,-1806,800,3636,8,-102,69,
272,7,27,2023,12,19,48,305,-1832,798,3639,1,-132,85,
273,7,27,2023,12,19,48,315,-1839,806,3641,0,-164,104,
274,7,27,2023,12,19,48,325,-1822,801,3624,-3,-211,128,
275,7,27,2023,12,19,48,335,-1688,847,3554,-11,-262,146,
276,7,27,2023,12,19,48,345,-1474,946,3553,-23,-280,128,
277,7,27,2023,12,19,48,355,-1597,915,3630,-47,-236,72,
278,7,27,2023,12,19,48,365,-1683,800,3648,-53,-169,48,
279,7,27,2023,12,19,48,375,-1658,800,3644,-31,-117,48,
280,7,27,2023,12,19,48,385,-1709,806,3643,-16,-79,49,
281,7,27,2023,12,19,48,395,-1740,824,3640,-11,-65,56,
282,7,27,2023,12,19,48,405,-1754,830,3637,-5,-79,63,
283,7,27,2023,12,19,48,415,-1746,804,3645,-6,-100,75,
284,7,27,2023,12,19,48,425,-1735,813,3640,-9,-123,88,
285,7,27,2023,12,19,48,435,-1755,764,3644,-8,-149,104,
286,7,27,2023,12,19,48,445,-1755,752,3648,1,-178,129,
287,7,27,2023,12,19,48,455,-1691,789,3620,13,-206,160,
288,7,27,2023,12,19,48,465,-1588,906,3597,19,-217,161,
289,7,27,2023,12,19,48,475,-1576,885,3621,14,-207,135,
290,7,27,2023,12,19,48,485,-1653,801,3638,11,-196,114,
291,7,27,2023,12,19,48,495,-1693,742,3657,28,-208,120,
292,7,27,2023,12,19,48,505,-1706,797,3650,49,-244,149,
293,7,27,2023,12,19,48,515,-1685,844,3657,59,-274,170,
294,7,27,2023,12,19,48,525,-1651,885,3662,58,-292,181,
295,7,27,2023,12,19,48,535,-1647,840,3657,52,-293,181,
296,7,27,2023,12,19,48,545,-1664,772,3668,53,-292,181,
297,7,27,2023,12,19,48,555,-1634,790,3636,84,-306,193,
298,7,27,2023,12,19,48,565,-1561,824,3611,106,-324,202,
299,7,27,2023,12,19,48,575,-1627,837,3660,107,-329,203,
300,7,27,2023,12,19,48,585,-1629,871,3686,111,-340,216,
301,7,27,2023,12,19,48,595,-1588,958,3673,105,-345,223,
302,7,27,2023,12,19,48,605,-1546,996,3675,78,-322,205,
303,7,27,2023,12,19,48,615,-1527,988,3684,38,-280,169,
304,7,27,2023,12,19,48,625,-1548,962,3680,-12,-248,126,
305,7,27,2023,12,19,48,635,-1589,887,3674,-51,-232,96,
306,7,27,2023,12,19,48,645,-1584,857,3699,-51,-233,95,
307,7,27,2023,12,19,48,655,-1571,897,3693,-42,-244,103,
308,7,27,2023,12,19,48,665,-1546,908,3679,-42,-238,103,
309,7,27,2023,12,19,48,675,-1543,857,3708,-45,-224,95,
310,7,27,2023,12,19,48,685,-1539,859,3697,-27,-198,86,
311,7,27,2023,12,19,48,695,-1527,886,3689,-1,-172,82,
312,7,27,2023,12,19,48,705,-1499,886,3689,11,-147,70,
313,7,27,2023,12,19,48,715,-1480,917,3677,15,-118,60,
314,7,27,2023,12,19,48,725,-1490,897,3682,13,-83,48,
315,7,27,2023,12,19,48,735,-1519,870,3695,20,-64,41,
316,7,27,2023,12,19,48,745,-1541,861,3705,27,-57,51,
317,7,27,2023,12,19,48,755,-1530,842,3710,26,-56,62,
318,7,27,2023,12,19,48,765,-1501,915,3680,12,-64,63,
319,7,27,2023,12,19,48,775,-1471,975,3668,-28,-71,41,
320,7,27,2023,12,19,48,785,-1496,939,3673,-69,-64,4,
321,7,27,2023,12,19,48,795,-1512,907,3678,-84,-57,-13,
322,7,27,2023,12,19,48,805,-1488,903,3639,-92,-58,-19,
323,7,27,2023,12,19,48,815,-1439,949,3641,-94,-49,-28,
324,7,27,2023,12,19,48,825,-1496,856,3669,-100,-16,-48,
325,7,27,2023,12,19,48,835,-1425,804,3634,-70,7,-52,
326,7,27,2023,12,19,48,845,-1473,809,3683,-37,52,-58,
327,7,27,2023,12,19,48,855,-1506,809,3695,-4,80,-54,
328,7,27,2023,12,19,48,865,-1498,937,3668,-10,82,-57,
329,7,27,2023,12,19,48,875,-1455,1008,3626,-79,86,-89,
330,7,27,2023,12,19,48,885,-1467,1030,3661,-165,92,-135,
331,7,27,2023,12,19,48,895,-1530,934,3673,-264,80,-187,
332,7,27,2023,12,19,48,905,-1317,939,3499,-330,56,-225,
333,7,27,2023,12,19,48,915,-1285,1031,3613,-390,104,-305,
334,7,27,2023,12,19,48,925,-1458,844,3732,-401,167,-373,
335,7,27,2023,12,19,48,935,-1413,868,3698,-340,208,-395,
336,7,27,2023,12,19,48,945,-1433,748,3703,-301,225,-427,
337,7,27,2023,12,19,48,955,-1306,897,3600,-280,199,-479,
338,7,27,2023,12,19,48,965,-1316,862,3561,-296,230,-560,
339,7,27,2023,12,19,48,975,-1326,658,3612,-283,346,-621,
340,7,27,2023,12,19,48,985,-1351,792,3692,-261,518,-668,
341,7,27,2023,12,19,49,5,-1519,689,3803,-175,893,-732,
342,7,27,2023,12,19,49,15,-1696,652,3848,-117,1047,-749,
343,7,27,2023,12,19,49,25,-1557,681,3777,-80,1209,-774,
344,7,27,2023,12,19,49,35,-1426,984,3773,-128,1434,-799,
345,7,27,2023,12,19,49,45,-1658,719,3788,-205,1656,-894,
346,7,27,2023,12,19,49,55,-1590,512,3939,-256,1904,-950,
347,7,27,2023,12,19,49,65,-2098,816,3736,-334,2217,-942,
348,7,27,2023,12,19,49,75,-1760,517,3832,-497,2715,-979,
349,7,27,2023,12,19,49,85,-1604,764,3821,-554,3289,-1010,
350,7,27,2023,12,19,49,95,-1832,554,3905,-637,3899,-1134,
351,7,27,2023,12,19,49,105,-1648,719,3889,-540,4503,-1256,
352,7,27,2023,12,19,49,115,-1758,787,3943,-566,5151,-1391,
353,7,27,2023,12,19,49,125,-1769,728,3974,-781,5795,-1504,
354,7,27,2023,12,19,49,135,-1802,780,3907,-1064,6473,-1601,
355,7,27,2023,12,19,49,145,-1844,714,3912,-1450,7225,-1750,
356,7,27,2023,12,19,49,155,-1937,995,4122,-1868,8161,-1949,
357,7,27,2023,12,19,49,165,-2113,1277,4067,-2293,9195,-2332,
358,7,27,2023,12,19,49,175,-2110,1248,3685,-2649,10355,-3076,
359,7,27,2023,12,19,49,185,-2564,1271,4012,-3051,11707,-4094,
360,7,27,2023,12,19,49,195,-3286,804,4044,-3095,12941,-5057,
361,7,27,2023,12,19,49,205,-4124,375,5238,-2621,14126,-5716,
362,7,27,2023,12,19,49,215,-5524,1860,5315,-2918,15127,-5941,
363,7,27,2023,12,19,49,225,-10252,4704,6571,-4802,15388,-6574,
364,7,27,2023,12,19,49,235,-14236,5319,10282,-7371,13558,-8176,
365,7,27,2023,12,19,49,245,-9492,3620,7847,-8578,10739,-8675,
366,7,27,2023,12,19,49,255,-3768,2833,6227,-7685,9230,-7854,
367,7,27,2023,12,19,49,265,628,4655,7530,-6866,8734,-7079,
368,7,27,2023,12,19,49,275,-3919,8046,3995,-8968,8049,-5816,
369,7,27,2023,12,19,49,285,-10565,7525,15026,-7465,8194,-2069,
370,7,27,2023,12,19,49,295,-5982,7506,12421,-4351,2671,2432,
371,7,27,2023,12,19,49,305,-1682,6134,7319,-4253,-1228,5006,
372,7,27,2023,12,19,49,315,576,3462,4020,-5992,-2330,5636,
373,7,27,2023,12,19,49,325,849,700,2832,-7052,-2222,5262,
374,7,27,2023,12,19,49,335,433,-1308,3131,-6092,-2100,4682,
375,7,27,2023,12,19,49,345,-33,-1156,3818,-3712,-2470,4049,
376,7,27,2023,12,19,49,355,-641,417,4607,-1965,-3265,3234,
377,7,27,2023,12,19,49,365,-1315,1437,5242,-1843,-4457,2269,
378,7,27,2023,12,19,49,375,-1565,1478,5164,-2395,-6009,1473,
379,7,27,2023,12,19,49,385,-1388,1167,4413,-2509,-7568,1046,
380,7,27,2023,12,19,49,395,-1164,1150,3460,-1948,-8765,898,
381,7,27,2023,12,19,49,405,-1156,1436,2775,-1148,-9471,852,
382,7,27,2023,12,19,49,415,-1435,1884,2580,-509,-9807,836,
383,7,27,2023,12,19,49,425,-2030,2357,2796,-116,-10018,918,
384,7,27,2023,12,19,49,435,-2711,2756,3105,135,-10303,1200,
385,7,27,2023,12,19,49,445,-3236,3113,3258,320,-10668,1671,
386,7,27,2023,12,19,49,455,-3554,3235,3255,443,-10983,2272,
387,7,27,2023,12,19,49,465,-4096,3075,3386,591,-11120,2914,
388,7,27,2023,12,19,49,475,-4853,3023,3544,886,-11180,3562,
389,7,27,2023,12,19,49,485,-5500,3354,3553,1200,-11238,4216,
390,7,27,2023,12,19,49,495,-5825,3820,3472,1214,-11224,4875,
391,7,27,2023,12,19,49,505,-5896,4112,3472,868,-11060,5567,
392,7,27,2023,12,19,49,515,-5977,3999,3644,438,-10765,6360,
393,7,27,2023,12,19,49,525,-6271,3743,4069,259,-10386,7248,
394,7,27,2023,12,19,49,535,-6664,3753,4590,355,-10016,8162,
395,7,27,2023,12,19,49,545,-7151,3698,5167,458,-9681,9018,
396,7,27,2023,12,19,49,555,-8020,3374,5667,543,-9397,9709,
397,7,27,2023,12,19,49,565,-9094,3009,5803,736,-9245,10174,
398,7,27,2023,12,19,49,575,-9895,3016,5543,845,-9230,10284,
399,7,27,2023,12,19,49,585,-10295,3308,4898,564,-9241,9926,
400,7,27,2023,12,19,49,595,-10462,3342,4017,-158,-9113,9199,
401,7,27,2023,12,19,49,605,-10591,3123,3056,-916,-8789,8343,
402,7,27,2023,12,19,49,615,-10565,2891,1945,-1251,-8299,7579,
403,7,27,2023,12,19,49,625,-10260,3035,627,-1192,-7649,7066,
404,7,27,2023,12,19,49,635,-9793,3033,-839,-1137,-6705,6895,
405,7,27,2023,12,19,49,645,-9561,-141,-2790,-866,-5415,7049,
406,7,27,2023,12,19,49,655,-11843,-4893,-3929,1424,-3765,7840,
407,7,27,2023,12,19,49,665,-15117,-3462,-5772,4494,-2387,8544,
408,7,27,2023,12,19,49,675,-13437,-2018,-6889,3806,-824,6943,
409,7,27,2023,12,19,49,685,-10032,-2451,-5460,293,1217,4045,
410,7,27,2023,12,19,49,695,-8213,-2229,-2169,-2336,2969,1496,
411,7,27,2023,12,19,49,705,-8052,-686,1474,-2816,3645,-108,
412,7,27,2023,12,19,49,715,-7852,730,3427,-2004,3017,-647,
413,7,27,2023,12,19,49,725,-2789,2323,2145,-1006,2002,-544,
414,7,27,2023,12,19,49,735,2240,1,-509,-1694,3044,492,
415,7,27,2023,12,19,49,745,4290,-3328,4785,-536,6171,1981,
416,7,27,2023,12,19,49,755,265,-4308,5886,2246,8400,2029,
417,7,27,2023,12,19,49,765,-4240,-5145,3614,2261,9631,-519,
418,7,27,2023,12,19,49,775,-6798,-974,7275,1880,9797,-2468,
419,7,27,2023,12,19,49,785,-7578,3202,8672,2921,8485,-1889,
420,7,27,2023,12,19,49,795,-9151,5834,10195,2370,6497,-956,
421,7,27,2023,12,19,49,805,-6784,5087,7283,623,4075,-863,
422,7,27,2023,12,19,49,815,-2902,3070,4564,-842,2906,-866,
423,7,27,2023,12,19,49,825,-2131,1208,4118,-1163,2509,-698,
424,7,27,2023,12,19,49,835,-2677,1490,3905,-1014,1958,-671,
425,7,27,2023,12,19,49,845,-1894,2402,3569,-1025,1377,-698,
426,7,27,2023,12,19,49,865,-1616,1234,4049,-1253,1051,-1073,
427,7,27,2023,12,19,49,875,-2487,774,4374,-1021,912,-1116,
428,7,27,2023,12,19,49,885,-2010,422,4103,-589,649,-940,
429,7,27,2023,12,19,49,895,-2152,536,3920,-221,551,-741,
430,7,27,2023,12,19,49,905,-1764,921,3727,-73,558,-621,
431,7,27,2023,12,19,49,915,-1845,934,3759,-93,652,-613,
432,7,27,2023,12,19,49,925,-2002,924,3727,-127,700,-605,
433,7,27,2023,12,19,49,935,-1926,974,3621,-186,679,-574,
434,7,27,2023,12,19,49,945,-1837,927,3598,-236,633,-566,
435,7,27,2023,12,19,49,955,-1814,891,3678,-244,627,-568,
436,7,27,2023,12,19,49,965,-1879,729,3673,-214,643,-531,
437,7,27,2023,12,19,49,975,-1850,667,3618,-169,650,-439,
438,7,27,2023,12,19,49,985,-1854,589,3597,-125,654,-345,
439,7,27,2023,12,19,49,995,-1849,685,3585,-58,669,-243,
440,7,27,2023,12,19,50,5,-1823,938,3558,-48,688,-177,
441,7,27,2023,12,19,50,15,-1920,1092,3509,-119,668,-222,
442,7,27,2023,12,19,50,25,-1981,1018,3494,-209,602,-336,
443,7,27,2023,12,19,50,35,-2044,974,3496,-289,489,-416,
444,7,27,2023,12,19,50,45,-2152,908,3516,-385,330,-442,
445,7,27,2023,12,19,50,55,-2210,756,3465,-461,140,-413,
446,7,27,2023,12,19,50,65,-2068,740,3387,-471,-57,-352,
447,7,27,2023,12,19,50,75,-1998,835,3376,-474,-251,-334,
448,7,27,2023,12,19,50,85,-1925,797,3440,-474,-406,-374,
449,7,27,2023,12,19,50,95,-1895,671,3507,-456,-507,-422,
450,7,27,2023,12,19,50,105,-1859,584,3591,-412,-541,-424,
451,7,27,2023,12,19,50,115,-1815,535,3599,-366,-498,-358,
452,7,27,2023,12,19,50,125,-1821,551,3555,-293,-415,-295,
453,7,27,2023,12,19,50,135,-1717,463,3537,-164,-310,-261,
454,7,27,2023,12,19,50,145,-1651,542,3570,8,-135,-230,
455,7,27,2023,12,19,50,155,-1691,700,3562,166,71,-224,
456,7,27,2023,12,19,50,165,-1700,752,3569,241,229,-252,
457,7,27,2023,12,19,50,175,-1655,814,3570,215,354,-293,
458,7,27,2023,12,19,50,185,-1602,827,3569,172,529,-359,
459,7,27,2023,12,19,50,195,-1588,854,3650,164,799,-466,
460,7,27,2023,12,19,50,205,-1605,874,3748,149,1170,-581,
461,7,27,2023,12,19,50,215,-1587,860,3761,117,1597,-690,
462,7,27,2023,12,19,50,225,-1650,830,3757,23,2051,-819,
463,7,27,2023,12,19,50,235,-1714,731,3783,-74,2524,-944,
464,7,27,2023,12,19,50,245,-1703,795,3806,-202,3038,-1044,
465,7,27,2023,12,19,50,255,-1732,712,3838,-356,3687,-1149,
466,7,27,2023,12,19,50,265,-1800,644,3790,-419,4469,-1277,
467,7,27,2023,12,19,50,275,-1785,670,3973,-463,5315,-1389,
468,7,27,2023,12,19,50,285,-1820,898,3753,-618,6137,-1507,
469,7,27,2023,12,19,50,295,-1969,839,3635,-933,7019,-1653,
470,7,27,2023,12,19,50,305,-2006,810,3688,-1298,7891,-1838,
471,7,27,2023,12,19,50,315,-2058,761,3562,-1700,8847,-2105,
472,7,27,2023,12,19,50,325,-2259,1061,3700,-2122,9968,-2507,
473,7,27,2023,12,19,50,335,-2360,1472,3699,-2649,11078,-3200,
474,7,27,2023,12,19,50,345,-2870,1787,3756,-3265,12259,-4228,
475,7,27,2023,12,19,50,355,-4234,1998,4522,-3748,13379,-5356,
476,7,27,2023,12,19,50,365,-5395,2038,5061,-4159,14172,-6301,
477,7,27,2023,12,19,50,375,-6618,1504,5886,-4740,14701,-7002,
478,7,27,2023,12,19,50,385,-7397,428,6485,-4633,14779,-7199,
479,7,27,2023,12,19,50,395,-7749,909,6485,-4342,14632,-6816,
480,7,27,2023,12,19,50,405,-9329,5296,8118,-5121,13990,-6744,
481,7,27,2023,12,19,50,415,-8350,3945,7357,-6070,12326,-6906,
482,7,27,2023,12,19,50,425,-6460,1985,6662,-5335,10917,-6806,
483,7,27,2023,12,19,50,435,-3843,5426,8904,-5846,9168,-6689,
484,7,27,2023,12,19,50,445,-10616,7257,11597,-6778,6532,-4782,
485,7,27,2023,12,19,50,455,-7391,7642,13860,-5079,3253,-1285,
486,7,27,2023,12,19,50,465,-3087,6490,8794,-4746,-1537,1470,
487,7,27,2023,12,19,50,475,-928,4266,5517,-5922,-3568,2524,
488,7,27,2023,12,19,50,485,58,2519,3988,-6709,-4012,2701,
489,7,27,2023,12,19,50,495,-175,1309,3818,-6375,-4190,2742,
490,7,27,2023,12,19,50,505,-697,1041,4073,-5122,-4670,2777,
491,7,27,2023,12,19,50,515,-1216,1562,4455,-3750,-5550,2660,
492,7,27,2023,12,19,50,525,-1412,2294,4472,-2997,-6738,2408,
493,7,27,2023,12,19,50,535,-1302,2495,3994,-2925,-7969,2084,
494,7,27,2023,12,19,50,545,-1219,2328,3294,-2957,-8996,1822,
495,7,27,2023,12,19,50,555,-1284,2190,2719,-2707,-9729,1666,
496,7,27,2023,12,19,50,565,-1580,2144,2497,-2148,-10201,1613,
497,7,27,2023,12,19,50,575,-1973,2365,2571,-1426,-10569,1701,
498,7,27,2023,12,19,50,585,-2550,2690,2793,-775,-10933,1923,
499,7,27,2023,12,19,50,595,-3026,2956,2866,-337,-11337,2260,
500,7,27,2023,12,19,50,605,-3390,3080,2828,-111,-11687,2628,
501,7,27,2023,12,19,50,615,-3751,3018,2825,23,-11895,2995,
502,7,27,2023,12,19,50,625,-4159,2714,2884,264,-11931,3388,
503,7,27,2023,12,19,50,635,-4803,2605,2992,723,-11854,3797,
504,7,27,2023,12,19,50,645,-5411,2896,3112,1182,-11726,4214,
505,7,27,2023,12,19,50,655,-5903,3282,3208,1316,-11517,4640,
506,7,27,2023,12,19,50,665,-6098,3558,3256,1120,-11235,5106,
507,7,27,2023,12,19,50,675,-6112,3603,3409,780,-10826,5677,
508,7,27,2023,12,19,50,685,-6165,3347,3793,569,-10305,6380,
509,7,27,2023,12,19,50,695,-6360,3236,4169,640,-9751,7168,
510,7,27,2023,12,19,50,705,-6705,3324,4481,751,-9185,7908,
511,7,27,2023,12,19,50,725,-8053,3439,4981,541,-8126,8846,
512,7,27,2023,12,19,50,735,-8788,3615,5161,342,-7812,9093,
513,7,27,2023,12,19,50,745,-9674,3883,5218,89,-7668,9312,
514,7,27,2023,12,19,50,755,-10661,4200,4951,-368,-7767,9462,
515,7,27,2023,12,19,50,765,-11284,4285,4214,-1109,-7992,9396,
516,7,27,2023,12,19,50,775,-11436,3960,3070,-1867,-8119,9134,
517,7,27,2023,12,19,50,785,-11270,3777,1816,-2293,-7991,8835,
518,7,27,2023,12,19,50,795,-10452,3380,16,-2420,-7586,8676,
519,7,27,2023,12,19,50,805,-8822,-1400,-2431,-1773,-6497,9041,
520,7,27,2023,12,19,50,815,-11458,-2613,-4040,908,-4795,10141,
521,7,27,2023,12,19,50,825,-13962,-1885,-6318,2325,-3130,9339,
522,7,27,2023,12,19,50,835,-14291,-3691,-7006,1688,-1521,6731,
523,7,27,2023,12,19,50,845,-12273,-3752,-6339,1370,-92,4199,
524,7,27,2023,12,19,50,855,-9569,-869,-4267,919,1372,2103,
525,7,27,2023,12,19,50,865,-8475,1611,-1215,-692,2553,519,
526,7,27,2023,12,19,50,875,-6711,340,-1571,-2053,2988,-180,
527,7,27,2023,12,19,50,885,-309,1078,-4856,-752,4809,915,
528,7,27,2023,12,19,50,895,2156,1300,5575,379,8125,2674,
529,7,27,2023,12,19,50,905,-54,-3748,9120,1091,9622,2249,
530,7,27,2023,12,19,50,915,-4772,-6305,3895,1043,10607,-601,
531,7,27,2023,12,19,50,925,-10189,-2188,10266,1458,11009,-2543,
532,7,27,2023,12,19,50,935,-11334,3427,13214,3018,8491,-1424,
533,7,27,2023,12,19,50,945,-6800,6644,7178,2009,4950,-942,
534,7,27,2023,12,19,50,955,-4254,6705,4958,-194,3442,-1231,
535,7,27,2023,12,19,50,965,-2284,715,4426,-1582,3080,-1185,
536,7,27,2023,12,19,50,975,-1615,-1403,4632,-1252,2561,-1183,
537,7,27,2023,12,19,50,985,-3380,3268,3150,-661,1394,-1047,
538,7,27,2023,12,19,50,995,-2656,2857,3722,-1117,632,-832,
539,7,27,2023,12,19,51,5,-2506,150,4681,-1238,94,-1014,
540,7,27,2023,12,19,51,15,-1982,269,4121,-725,-242,-950,
541,7,27,2023,12,19,51,25,-1922,1123,3829,-449,-95,-688,
542,7,27,2023,12,19,51,35,-1906,708,3826,-457,30,-588,
543,7,27,2023,12,19,51,45,-1869,933,3731,-456,60,-546,
544,7,27,2023,12,19,51,55,-1720,1068,3717,-554,13,-625,
545,7,27,2023,12,19,51,65,-1708,728,3786,-624,50,-685,
546,7,27,2023,12,19,51,75,-1801,600,3777,-555,179,-603,
547,7,27,2023,12,19,51,85,-1803,675,3753,-453,245,-498,
548,7,27,2023,12,19,51,95,-1801,731,3734,-400,263,-429,
549,7,27,2023,12,19,51,105,-1812,667,3719,-362,275,-364,
550,7,27,2023,12,19,51,115,-1762,673,3678,-295,280,-297,
551,7,27,2023,12,19,51,125,-1686,626,3642,-222,284,-259,
552,7,27,2023,12,19,51,135,-1617,604,3686,-135,328,-235,
553,7,27,2023,12,19,51,145,-1609,611,3682,-60,406,-213,
554,7,27,2023,12,19,51,155,-1613,660,3671,-15,486,-195,
555,7,27,2023,12,19,51,165,-1683,707,3670,4,561,-185,
556,7,27,2023,12,19,51,175,-1689,848,3616,-7,590,-184,
557,7,27,2023,12,19,51,185,-1697,889,3615,-69,613,-228,
558,7,27,2023,12,19,51,195,-1673,776,3587,-118,634,-292,
559,7,27,2023,12,19,51,205,-1667,681,3628,-126,658,-335,
560,7,27,2023,12,19,51,215,-1711,643,3642,-126,698,-328,
561,7,27,2023,12,19,51,225,-1752,720,3632,-130,755,-296,
562,7,27,2023,12,19,51,235,-1813,653,3612,-149,784,-289,
563,7,27,2023,12,19,51,245,-1883,544,3586,-156,789,-278,
564,7,27,2023,12,19,51,255,-1886,597,3561,-113,801,-238,
565,7,27,2023,12,19,51,265,-1881,587,3577,-73,813,-209,
566,7,27,2023,12,19,51,275,-1939,597,3574,-55,803,-188,
567,7,27,2023,12,19,51,285,-1946,712,3564,-58,778,-170,
568,7,27,2023,12,19,51,295,-1998,762,3528,-99,731,-175,
569,7,27,2023,12,19,51,305,-2037,748,3478,-157,654,-211,
570,7,27,2023,12,19,51,315,-2022,748,3442,-186,561,-266,
571,7,27,2023,12,19,51,325,-1984,747,3468,-177,485,-341,
572,7,27,2023,12,19,51,335,-1965,660,3501,-176,441,-400,
573,7,27,2023,12,19,51,345,-1971,592,3539,-165,429,-420,
574,7,27,2023,12,19,51,355,-1975,528,3540,-140,452,-398,
575,7,27,2023,12,19,51,365,-1983,476,3528,-87,511,-368,
576,7,27,2023,12,19,51,375,-1937,448,3571,-15,585,-333,
577,7,27,2023,12,19,51,385,-1890,481,3603,17,691,-269,
578,7,27,2023,12,19,51,395,-1859,586,3628,-2,842,-201,
579,7,27,2023,12,19,51,405,-1882,682,3598,-77,1014,-182,
580,7,27,2023,12,19,51,415,-1909,664,3584,-156,1188,-213,
581,7,27,2023,12,19,51,425,-1902,700,3632,-203,1398,-259,
582,7,27,2023,12,19,51,435,-1999,720,3599,-256,1649,-315,
583,7,27,2023,12,19,51,445,-2014,721,3602,-321,1905,-419,
584,7,27,2023,12,19,51,455,-2040,672,3587,-404,2157,-532,
585,7,27,2023,12,19,51,465,-2061,613,3555,-490,2452,-620,
586,7,27,2023,12,19,51,475,-2117,583,3546,-571,2804,-685,
587,7,27,2023,12,19,51,485,-2143,596,3592,-647,3177,-720,
588,7,27,2023,12,19,51,495,-2176,643,3515,-792,3535,-764,
589,7,27,2023,12,19,51,505,-2208,701,3498,-930,3901,-855,
590,7,27,2023,12,19,51,515,-2210,799,3525,-1068,4300,-1011,
591,7,27,2023,12,19,51,525,-2225,961,3557,-1278,4795,-1269,
592,7,27,2023,12,19,51,535,-2230,1040,3695,-1582,5484,-1639,
593,7,27,2023,12,19,51,545,-2202,1048,3871,-1908,6360,-2110,
594,7,27,2023,12,19,51,555,-2107,952,3768,-2321,7429,-2757,
595,7,27,2023,12,19,51,565,-2199,832,3837,-2709,8744,-3493,
596,7,27,2023,12,19,51,585,-2935,1027,4444,-3327,11676,-5094,
597,7,27,2023,12,19,51,595,-4499,1136,5438,-3793,13038,-5802,
598,7,27,2023,12,19,51,605,-5480,664,6067,-3783,13909,-5895,
599,7,27,2023,12,19,51,615,-6202,554,6403,-3418,14274,-5737,
600,7,27,2023,12,19,51,625,-8316,1605,7247,-3626,13857,-5567,
601,7,27,2023,12,19,51,635,-9147,2422,6924,-3521,12380,-5042,
602,7,27,2023,12,19,51,645,-6797,2006,5695,-2822,10457,-4653,
603,7,27,2023,12,19,51,655,-4335,3129,6520,-3719,8832,-4930,
604,7,27,2023,12,19,51,665,-2692,5851,10077,-6180,5847,-4630,
605,7,27,2023,12,19,51,675,-7636,6895,13281,-6277,1618,-1545,
606,7,27,2023,12,19,51,685,-516,6040,8222,-2972,-2378,2810,
607,7,27,2023,12,19,51,695,2126,4289,3038,-2674,-4498,4575,
608,7,27,2023,12,19,51,705,1390,1915,2361,-3941,-4321,4474,
609,7,27,2023,12,19,51,715,432,114,3180,-3714,-4496,4292,
610,7,27,2023,12,19,51,725,-64,31,3735,-2149,-5371,4374,
611,7,27,2023,12,19,51,735,-228,836,3827,-956,-6500,4376,
612,7,27,2023,12,19,51,745,-346,1185,3564,-882,-7569,4192,
613,7,27,2023,12,19,51,755,-639,941,3292,-1322,-8458,3947,
614,7,27,2023,12,19,51,765,-1003,589,3195,-1469,-9230,3821,
615,7,27,2023,12,19,51,775,-1345,647,3053,-1148,-9941,3866,
616,7,27,2023,12,19,51,785,-1496,894,2745,-726,-10493,4045,
617,7,27,2023,12,19,51,795,-1619,956,2426,-471,-10744,4284,
618,7,27,2023,12,19,51,805,-1976,1089,2427,-343,-10741,4535,
619,7,27,2023,12,19,51,815,-2723,1559,2700,-324,-10636,4823,
620,7,27,2023,12,19,51,825,-3716,2215,3049,-520,-10544,5288,
621,7,27,2023,12,19,51,835,-4895,2448,3236,-931,-10498,5996,
622,7,27,2023,12,19,51,845,-6047,2132,2926,-1265,-10485,6884,
623,7,27,2023,12,19,51,855,-6955,1746,2211,-1362,-10336,7732,
624,7,27,2023,12,19,51,865,-7783,1430,1307,-1350,-9862,8314,
625,7,27,2023,12,19,51,875,-8744,1234,361,-1305,-8950,8529,
626,7,27,2023,12,19,51,885,-10918,1350,-1210,-1281,-6028,8386,
627,7,27,2023,12,19,51,895,-11788,1269,-1746,-1205,-4295,8292,
628,7,27,2023,12,19,51,905,-12247,1298,-2041,-938,-2698,8271,
629,7,27,2023,12,19,51,915,-11979,1073,-2451,-633,-1364,8108,
630,7,27,2023,12,19,51,925,-11178,532,-2878,-299,-256,7564,
631,7,27,2023,12,19,51,935,-9902,-109,-3092,182,678,6622,
632,7,27,2023,12,19,51,945,-8414,-739,-3184,978,1575,5581,
633,7,27,2023,12,19,51,955,-7137,-983,-2986,1961,2564,4551,
634,7,27,2023,12,19,51,965,-6535,-821,-2131,2700,3568,3528,
635,7,27,2023,12,19,51,975,-9984,607,1271,2898,4311,2596,
636,7,27,2023,12,19,51,985,-13804,5109,6313,-2262,3812,-555,
637,7,27,2023,12,19,51,995,-5879,1295,2637,-5410,-107,-528,
638,7,27,2023,12,19,52,5,1054,232,4914,-2646,-2167,268,
639,7,27,2023,12,19,52,15,1263,2255,5048,-1788,-2229,-1579,
640,7,27,2023,12,19,52,25,-3670,396,4700,-1836,-1738,-2029,
641,7,27,2023,12,19,52,35,-2838,-1318,3741,-806,-2216,-952,
642,7,27,2023,12,19,52,45,-1094,1285,3714,-559,-2053,-446,
643,7,27,2023,12,19,52,55,-1843,18,4111,-617,-1157,-397,
644,7,27,2023,12,19,52,65,-2314,-386,3888,-287,-629,-169,
645,7,27,2023,12,19,52,75,-1869,959,3547,127,-346,184,
646,7,27,2023,12,19,52,85,-1898,1131,3514,194,-150,245,
647,7,27,2023,12,19,52,95,-1938,1063,3505,182,-102,204,
648,7,27,2023,12,19,52,105,-1786,1432,3361,141,-147,155,
649,7,27,2023,12,19,52,115,-1813,1412,3436,23,-179,37,
650,7,27,2023,12,19,52,125,-1858,1170,3514,-101,-234,-66,
651,7,27,2023,12,19,52,135,-1837,1042,3503,-174,-295,-119,
652,7,27,2023,12,19,52,145,-1857,892,3564,-167,-320,-116,
653,7,27,2023,12,19,52,155,-1840,785,3590,-128,-307,-84,
654,7,27,2023,12,19,52,165,-1820,830,3581,-58,-230,-32,
655,7,27,2023,12,19,52,175,-1844,879,3585,14,-137,11,
656,7,27,2023,12,19,52,185,-1852,941,3577,60,-62,39,
657,7,27,2023,12,19,52,195,-1852,1000,3541,77,-26,54,
658,7,27,2023,12,19,52,205,-1809,1034,3524,65,-42,53,
659,7,27,2023,12,19,52,215,-1786,1086,3525,25,-80,35,
660,7,27,2023,12,19,52,225,-1781,1096,3545,-42,-125,-2,
661,7,27,2023,12,19,52,235,-1821,1082,3549,-110,-169,-38,
662,7,27,2023,12,19,52,245,-1840,1044,3559,-167,-220,-81,
663,7,27,2023,12,19,52,255,-1839,997,3557,-212,-274,-111,
664,7,27,2023,12,19,52,265,-1821,937,3574,-246,-329,-118,
665,7,27,2023,12,19,52,275,-1824,889,3591,-255,-362,-103,
666,7,27,2023,12,19,52,285,-1815,903,3584,-240,-359,-71,
667,7,27,2023,12,19,52,295,-1773,917,3593,-216,-334,-45,
668,7,27,2023,12,19,52,305,-1816,890,3596,-198,-301,-23,
669,7,27,2023,12,19,52,315,-1820,874,3582,-172,-283,5,
670,7,27,2023,12,19,52,325,-1678,924,3535,-144,-291,28,
671,7,27,2023,12,19,52,335,-1632,1030,3545,-141,-288,18,
672,7,27,2023,12,19,52,345,-1702,963,3578,-159,-265,-13,
673,7,27,2023,12,19,52,355,-1712,950,3599,-163,-244,-23,
674,7,27,2023,12,19,52,365,-1717,941,3599,-161,-223,-24,
675,7,27,2023,12,19,52,375,-1730,933,3598,-155,-202,-23,
676,7,27,2023,12,19,52,385,-1719,904,3595,-143,-186,-23,
677,7,27,2023,12,19,52,395,-1714,903,3601,-123,-164,-19,
678,7,27,2023,12,19,52,405,-1707,893,3611,-101,-136,-11,
679,7,27,2023,12,19,52,415,-1700,889,3622,-73,-105,-7,
680,7,27,2023,12,19,52,425,-1690,899,3616,-48,-72,3,
681,7,27,2023,12,19,52,445,-1668,914,3598,-16,-37,0,
682,7,27,2023,12,19,52,455,-1700,919,3611,-14,-16,-4,
683,7,27,2023,12,19,52,465,-1703,933,3605,-16,-6,-7,
684,7,27,2023,12,19,52,475,-1702,927,3608,-26,-9,-10,
685,7,27,2023,12,19,52,485,-1727,908,3614,-35,-11,-11,
686,7,27,2023,12,19,52,495,-1732,903,3606,-36,-20,-5,
687,7,27,2023,12,19,52,505,-1717,901,3613,-36,-29,2,
688,7,27,2023,12,19,52,515,-1707,901,3611,-31,-40,7,
689,7,27,2023,12,19,52,525,-1709,900,3607,-26,-42,11,
690,7,27,2023,12,19,52,535,-1691,904,3611,-20,-37,14,
691,7,27,2023,12,19,52,545,-1700,899,3609,-17,-33,15,
692,7,27,2023,12,19,52,555,-1717,883,3619,-13,-34,17,
693,7,27,2023,12,19,52,565,-1718,894,3624,-7,-33,27,
694,7,27,2023,12,19,52,575,-1712,916,3618,-6,-33,30,
695,7,27,2023,12,19,52,585,-1708,908,3623,-9,-33,29,
696,7,27,2023,12,19,52,595,-1695,915,3607,-9,-26,29,
697,7,27,2023,12,19,52,605,-1615,938,3584,-10,-17,25,
698,7,27,2023,12,19,52,615,-1635,964,3608,-18,7,-1,
699,7,27,2023,12,19,52,625,-1706,898,3614,-24,27,-15,
700,7,27,2023,12,19,52,635,-1695,894,3612,-22,30,-14,
701,7,27,2023,12,19,52,645,-1709,910,3614,-19,27,-16,
702,7,27,2023,12,19,52,655,-1707,905,3613,-22,24,-12,
703,7,27,2023,12,19,52,665,-1703,917,3611,-23,19,-15,
704,7,27,2023,12,19,52,675,-1708,920,3611,-24,13,-16,
705,7,27,2023,12,19,52,685,-1712,891,3622,-33,6,-14,
706,7,27,2023,12,19,52,695,-1715,892,3615,-28,-2,-10,
707,7,27,2023,12,19,52,705,-1710,902,3614,-23,-3,-5,
708,7,27,2023,12,19,52,715,-1719,896,3618,-22,-5,-4,
709,7,27,2023,12,19,52,725,-1719,897,3625,-25,-11,2,
710,7,27,2023,12,19,52,735,-1721,880,3619,-27,-22,5,
711,7,27,2023,12,19,52,745,-1724,851,3615,-18,-33,17,
712,7,27,2023,12,19,52,755,-1697,883,3604,-9,-44,28,
713,7,27,2023,12,19,52,765,-1669,903,3601,-3,-40,29,
714,7,27,2023,12,19,52,775,-1662,903,3616,2,-28,23,
715,7,27,2023,12,19,52,785,-1686,898,3618,3,-15,15,
716,7,27,2023,12,19,52,795,-1690,887,3614,8,-8,15,
717,7,27,2023,12,19,52,805,-1688,914,3606,12,-4,19,
718,7,27,2023,12,19,52,815,-1680,933,3608,11,2,16,
719,7,27,2023,12,19,52,825,-1688,930,3611,5,6,8,
720,7,27,2023,12,19,52,835,-1683,911,3609,0,6,3,
721,7,27,2023,12,19,52,845,-1666,906,3594,-2,6,-3,
722,7,27,2023,12,19,52,855,-1669,899,3617,-3,10,-7,
723,7,27,2023,12,19,52,865,-1700,893,3624,-2,19,-12,
724,7,27,2023,12,19,52,875,-1706,899,3619,7,23,-12,
725,7,27,2023,12,19,52,885,-1695,904,3608,8,26,-6,
726,7,27,2023,12,19,52,895,-1669,913,3588,2,24,-8,
727,7,27,2023,12,19,52,905,-1661,933,3599,-9,27,-24,
728,7,27,2023,12,19,52,915,-1682,903,3602,-14,38,-38,
729,7,27,2023,12,19,52,925,-1693,904,3622,-10,52,-42,
730,7,27,2023,12,19,52,935,-1717,880,3621,-8,63,-44,
731,7,27,2023,12,19,52,945,-1703,900,3619,1,59,-35,
732,7,27,2023,12,19,52,955,-1707,913,3612,0,56,-30,
733,7,27,2023,12,19,52,965,-1697,899,3606,3,55,-33,
734,7,27,2023,12,19,52,975,-1704,907,3609,-2,54,-38,
735,7,27,2023,12,19,52,985,-1692,893,3605,-6,46,-36,
736,7,27,2023,12,19,52,995,-1702,909,3615,-3,45,-39,
737,7,27,2023,12,19,53,5,-1720,877,3621,3,53,-38,
738,7,27,2023,12,19,53,15,-1719,882,3616,8,55,-32,
739,7,27,2023,12,19,53,25,-1711,902,3606,6,57,-31,
740,7,27,2023,12,19,53,35,-1695,902,3589,7,57,-34,
741,7,27,2023,12,19,53,45,-1677,937,3593,4,54,-43,
742,7,27,2023,12,19,53,55,-1727,896,3610,-4,58,-52,
743,7,27,2023,12,19,53,65,-1711,894,3609,-1,58,-51,
744,7,27,2023,12,19,53,75,-1710,902,3609,0,59,-51,
745,7,27,2023,12,19,53,85,-1727,878,3614,-8,60,-50,
746,7,27,2023,12,19,53,95,-1695,900,3596,-5,62,-51,
747,7,27,2023,12,19,53,105,-1708,899,3603,0,70,-54,
748,7,27,2023,12,19,53,115,-1717,884,3609,5,75,-57,
749,7,27,2023,12,19,53,125,-1739,901,3612,9,78,-55,
750,7,27,2023,12,19,53,135,-1747,885,3610,5,77,-51,
751,7,27,2023,12,19,53,145,-1735,894,3597,3,72,-46,
752,7,27,2023,12,19,53,155,-1714,904,3591,1,60,-42,
753,7,27,2023,12,19,53,165,-1684,917,3585,-6,59,-53,
754,7,27,2023,12,19,53,175,-1741,882,3610,-4,68,-59,
755,7,27,2023,12,19,53,185,-1761,853,3613,0,74,-51,
756,7,27,2023,12,19,53,195,-1762,878,3610,3,69,-39,
757,7,27,2023,12,19,53,205,-1771,877,3614,2,62,-34,
758,7,27,2023,12,19,53,215,-1779,883,3612,0,46,-26,
759,7,27,2023,12,19,53,225,-1779,878,3596,-8,26,-16,
760,7,27,2023,12,19,53,235,-1732,897,3589,-14,5,-13,
761,7,27,2023,12,19,53,245,-1729,903,3601,-19,-5,-16,
762,7,27,2023,12,19,53,255,-1731,894,3595,-25,-9,-22,
763,7,27,2023,12,19,53,265,-1737,870,3602,-30,-9,-22,
764,7,27,2023,12,19,53,275,-1744,874,3610,-25,-4,-16,
765,7,27,2023,12,19,53,285,-1750,871,3608,-18,1,-13,
766,7,27,2023,12,19,53,305,-1747,885,3601,-11,0,-5,
767,7,27,2023,12,19,53,315,-1746,888,3606,-13,-4,-4,
768,7,27,2023,12,19,53,325,-1748,883,3607,-11,-8,-4,
769,7,27,2023,12,19,53,335,-1754,879,3600,-7,-13,2,
770,7,27,2023,12,19,53,345,-1744,880,3600,-8,-16,5,
771,7,27,2023,12,19,53,355,-1725,883,3597,-9,-23,5,
772,7,27,2023,12,19,53,365,-1718,891,3596,-11,-23,4,
773,7,27,2023,12,19,53,375,-1731,883,3601,-10,-17,5,
774,7,27,2023,12,19,53,385,-1744,883,3606,-10,-15,7,
775,7,27,2023,12,19,53,395,-1742,884,3604,-8,-15,10,
776,7,27,2023,12,19,53,405,-1734,890,3605,-8,-15,13,
777,7,27,2023,12,19,53,415,-1742,893,3609,-11,-18,12,
778,7,27,2023,12,19,53,425,-1742,886,3611,-12,-25,8,
779,7,27,2023,12,19,53,435,-1737,882,3601,-15,-30,12,
780,7,27,2023,12,19,53,445,-1734,878,3599,-13,-35,14,
781,7,27,2023,12,19,53,455,-1731,884,3605,-15,-34,16,
782,7,27,2023,12,19,53,465,-1735,882,3602,-16,-42,16,
783,7,27,2023,12,19,53,475,-1736,885,3603,-18,-47,18,
784,7,27,2023,12,19,53,485,-1730,877,3604,-22,-47,17,
785,7,27,2023,12,19,53,495,-1712,887,3603,-21,-46,16,
786,7,27,2023,12,19,53,505,-1716,874,3596,-24,-44,15,
787,7,27,2023,12,19,53,515,-1708,869,3604,-22,-41,11,
788,7,27,2023,12,19,53,525,-1714,886,3612,-19,-36,10,
789,7,27,2023,12,19,53,535,-1723,870,3611,-16,-31,11,
790,7,27,2023,12,19,53,545,-1723,886,3612,-15,-26,12,
791,7,27,2023,12,19,53,555,-1725,874,3611,-14,-21,16,
792,7,27,2023,12,19,53,565,-1721,880,3610,-14,-21,15,
793,7,27,2023,12,19,53,575,-1710,889,3602,-14,-26,12,
794,7,27,2023,12,19,53,585,-1713,885,3610,-19,-20,11,
795,7,27,2023,12,19,53,595,-1712,876,3619,-17,-15,10,
796,7,27,2023,12,19,53,605,-1713,877,3611,-15,-7,5,
797,7,27,2023,12,19,53,615,-1727,864,3612,-11,-2,7,
798,7,27,2023,12,19,53,625,-1725,865,3611,-4,-5,17,
799,7,27,2023,12,19,53,635,-1734,879,3604,-2,-8,19,
800,7,27,2023,12,19,53,645,-1725,870,3608,0,-17,18,
801,7,27,2023,12,19,53,655,-1728,876,3613,0,-25,20,
802,7,27,2023,12,19,53,665,-1719,887,3615,-4,-27,22,
803,7,27,2023,12,19,53,675,-1710,883,3618,-3,-29,20,
804,7,27,2023,12,19,53,685,-1717,865,3614,-4,-29,18,
805,7,27,2023,12,19,53,695,-1711,867,3614,-4,-26,23,
806,7,27,2023,12,19,53,705,-1708,884,3608,-1,-22,21,
807,7,27,2023,12,19,53,715,-1717,873,3610,1,-18,18,
808,7,27,2023,12,19,53,725,-1710,877,3610,5,-19,22,
809,7,27,2023,12,19,53,735,-1707,882,3609,3,-15,19,
810,7,27,2023,12,19,53,745,-1711,888,3612,-1,-13,18,
811,7,27,2023,12,19,53,755,-1711,879,3607,3,-11,18,
812,7,27,2023,12,19,53,765,-1701,884,3602,0,-10,16,
813,7,27,2023,12,19,53,775,-1700,881,3608,0,-11,11,
814,7,27,2023,12,19,53,785,-1708,882,3616,0,-7,10,
815,7,27,2023,12,19,53,795,-1710,882,3622,-4,-8,9,
816,7,27,2023,12,19,53,805,-1709,886,3613,2,-7,8,
817,7,27,2023,12,19,53,815,-1706,889,3613,-1,-1,4,
818,7,27,2023,12,19,53,825,-1709,884,3612,-6,0,2,
819,7,27,2023,12,19,53,835,-1704,888,3609,-2,2,3,
820,7,27,2023,12,19,53,845,-1717,877,3607,-4,5,1,
821,7,27,2023,12,19,53,855,-1711,883,3605,-2,1,1,
822,7,27,2023,12,19,53,865,-1723,880,3616,-2,0,5,
823,7,27,2023,12,19,53,875,-1717,872,3613,-4,-4,8,
824,7,27,2023,12,19,53,885,-1711,883,3614,-3,-9,8,
825,7,27,2023,12,19,53,895,-1718,874,3615,-4,-9,6,
826,7,27,2023,12,19,53,905,-1711,881,3613,-1,-10,10,
827,7,27,2023,12,19,53,915,-1697,888,3614,-3,-7,8,
828,7,27,2023,12,19,53,925,-1708,875,3607,-1,-6,4,
829,7,27,2023,12,19,53,935,-1712,885,3616,2,-5,10,
830,7,27,2023,12,19,53,945,-1696,887,3614,3,-4,11,
831,7,27,2023,12,19,53,955,-1706,890,3618,2,1,6,
832,7,27,2023,12,19,53,965,-1717,885,3618,-4,1,5,
833,7,27,2023,12,19,53,975,-1710,878,3614,-4,-2,3,
834,7,27,2023,12,19,53,985,-1703,870,3613,-5,0,1,
835,7,27,2023,12,19,53,995,-1713,863,3611,1,5,4,
836,7,27,2023,12,19,54,5,-1708,865,3613,8,6,6,
837,7,27,2023,12,19,54,15,-1721,852,3608,16,4,9,
838,7,27,2023,12,19,54,25,-1718,861,3607,24,6,13,
839,7,27,2023,12,19,54,35,-1718,881,3613,29,7,17,
840,7,27,2023,12,19,54,45,-1704,908,3621,18,17,15,
841,7,27,2023,12,19,54,55,-1704,896,3611,22,8,15,
842,7,27,2023,12,19,54,65,-1712,891,3620,21,5,13,
843,7,27,2023,12,19,54,75,-1711,890,3610,16,3,11,
844,7,27,2023,12,19,54,85,-1706,893,3602,10,3,11,
845,7,27,2023,12,19,54,95,-1707,890,3612,10,6,11,
846,7,27,2023,12,19,54,105,-1709,887,3611,9,8,7,
847,7,27,2023,12,19,54,115,-1711,884,3610,7,2,10,
848,7,27,2023,12,19,54,125,-1708,890,3608,8,0,9,
849,7,27,2023,12,19,54,135,-1710,895,3612,4,2,6,
850,7,27,2023,12,19,54,145,-1714,894,3611,6,4,7,
851,7,27,2023,12,19,54,165,-1709,888,3617,2,-2,6,
852,7,27,2023,12,19,54,175,-1706,897,3623,3,4,6,
853,7,27,2023,12,19,54,185,-1708,888,3615,2,6,6,
854,7,27,2023,12,19,54,195,-1712,871,3606,2,8,3,
855,7,27,2023,12,19,54,205,-1703,884,3604,5,8,4,
856,7,27,2023,12,19,54,215,-1704,890,3614,10,8,5,
857,7,27,2023,12,19,54,225,-1715,887,3620,8,6,4,
858,7,27,2023,12,19,54,235,-1713,888,3615,4,4,6,
859,7,27,2023,12,19,54,245,-1706,892,3610,2,1,8,
860,7,27,2023,12,19,54,255,-1701,900,3615,3,1,6,
861,7,27,2023,12,19,54,265,-1711,900,3610,2,3,2,
862,7,27,2023,12,19,54,275,-1709,885,3611,-3,3,-4,
863,7,27,2023,12,19,54,285,-1713,881,3619,-7,5,-6,
864,7,27,2023,12,19,54,295,-1714,881,3617,-3,4,-3,
865,7,27,2023,12,19,54,305,-1710,885,3607,-1,3,-2,
866,7,27,2023,12,19,54,315,-1711,880,3607,0,1,0,
867,7,27,2023,12,19,54,325,-1709,885,3609,3,3,3,
868,7,27,2023,12,19,54,335,-1700,888,3615,3,7,2,
869,7,27,2023,12,19,54,345,-1709,884,3615,1,8,0,
870,7,27,2023,12,19,54,355,-1713,904,3608,3,11,3,
871,7,27,2023,12,19,54,365,-1709,889,3608,3,10,0,
872,7,27,2023,12,19,54,375,-1715,886,3619,3,9,1,
873,7,27,2023,12,19,54,385,-1715,885,3608,5,6,5,
874,7,27,2023,12,19,54,395,-1710,887,3606,1,3,3,
875,7,27,2023,12,19,54,405,-1708,888,3612,-5,-2,1,
876,7,27,2023,12,19,54,415,-1717,888,3617,-3,-1,4,
877,7,27,2023,12,19,54,425,-1711,885,3612,2,2,4,
878,7,27,2023,12,19,54,435,-1704,899,3610,1,3,-1,
879,7,27,2023,12,19,54,445,-1710,889,3605,-2,5,0,
880,7,27,2023,12,19,54,455,-1699,893,3603,-1,5,-5,
881,7,27,2023,12,19,54,465,-1699,891,3618,-3,6,-7,
882,7,27,2023,12,19,54,475,-1713,884,3619,-6,11,-7,
883,7,27,2023,12,19,54,485,-1718,880,3608,1,16,-8,
884,7,27,2023,12,19,54,495,-1713,880,3611,10,19,-4,
885,7,27,2023,12,19,54,505,-1713,886,3619,16,23,1,
886,7,27,2023,12,19,54,515,-1708,897,3613,15,25,0,
887,7,27,2023,12,19,54,525,-1696,895,3604,13,28,-2,
888,7,27,2023,12,19,54,535,-1700,893,3612,10,29,-7,
889,7,27,2023,12,19,54,545,-1716,893,3614,8,28,-7,
890,7,27,2023,12,19,54,555,-1724,884,3612,6,30,-8,
891,7,27,2023,12,19,54,565,-1721,884,3607,3,22,-7,
892,7,27,2023,12,19,54,575,-1724,893,3608,4,17,-6,
893,7,27,2023,12,19,54,585,-1716,892,3606,1,12,-5,
894,7,27,2023,12,19,54,595,-1703,894,3608,-5,14,-9,
895,7,27,2023,12,19,54,605,-1709,894,3605,-4,16,-10,
896,7,27,2023,12,19,54,615,-1717,887,3606,-7,16,-10,
897,7,27,2023,12,19,54,625,-1722,885,3610,-7,14,-10,
898,7,27,2023,12,19,54,635,-1722,882,3614,-8,13,-13,
899,7,27,2023,12,19,54,645,-1723,893,3620,-7,11,-8,
900,7,27,2023,12,19,54,655,-1724,894,3612,-11,8,-7,
901,7,27,2023,12,19,54,665,-1727,886,3612,-14,5,-8,
902,7,27,2023,12,19,54,675,-1714,878,3612,-14,3,-11,
903,7,27,2023,12,19,54,685,-1723,869,3625,-9,0,-7,
904,7,27,2023,12,19,54,695,-1715,880,3613,-5,0,-3,
905,7,27,2023,12,19,54,705,-1708,890,3610,-4,0,-2,
906,7,27,2023,12,19,54,715,-1712,890,3612,-1,-1,-2,
907,7,27,2023,12,19,54,725,-1709,882,3606,-3,-2,-1,
908,7,27,2023,12,19,54,735,-1705,889,3611,-3,1,-6,
909,7,27,2023,12,19,54,745,-1699,888,3609,-4,8,-9,
910,7,27,2023,12,19,54,755,-1715,884,3613,0,16,-12,
911,7,27,2023,12,19,54,765,-1722,874,3610,0,20,-9,
912,7,27,2023,12,19,54,775,-1718,881,3611,8,23,-4,
913,7,27,2023,12,19,54,785,-1713,888,3612,11,23,2,
914,7,27,2023,12,19,54,795,-1716,888,3605,11,28,2,
915,7,27,2023,12,19,54,805,-1721,885,3600,13,28,-2,
916,7,27,2023,12,19,54,815,-1722,891,3601,14,22,-5,
917,7,27,2023,12,19,54,825,-1727,888,3605,11,23,-7,
918,7,27,2023,12,19,54,835,-1725,895,3606,15,24,-8,
919,7,27,2023,12,19,54,845,-1725,893,3608,12,19,-5,
920,7,27,2023,12,19,54,855,-1714,893,3606,7,16,-8,
921,7,27,2023,12,19,54,865,-1701,890,3598,5,19,-9,
922,7,27,2023,12,19,54,875,-1702,883,3596,7,23,-8,
923,7,27,2023,12,19,54,885,-1717,880,3607,6,29,-13,
924,7,27,2023,12,19,54,895,-1731,878,3618,7,38,-11,
925,7,27,2023,12,19,54,905,-1733,884,3615,10,33,-4,
926,7,27,2023,12,19,54,915,-1729,885,3607,9,26,-6,
927,7,27,2023,12,19,54,925,-1727,901,3602,7,19,-7,
928,7,27,2023,12,19,54,935,-1718,898,3602,-1,24,-9,
929,7,27,2023,12,19,54,945,-1721,886,3606,-2,23,-12,
930,7,27,2023,12,19,54,955,-1724,865,3603,-7,19,-11,
931,7,27,2023,12,19,54,965,-1719,874,3605,-2,20,-9,
932,7,27,2023,12,19,54,975,-1731,884,3605,5,21,-7,
933,7,27,2023,12,19,54,985,-1734,887,3621,6,21,-9,
934,7,27,2023,12,19,54,995,-1735,896,3602,6,19,-4,
935,7,27,2023,12,19,55,5,-1735,873,3605,12,11,-3,
936,7,27,2023,12,19,55,25,-1721,891,3598,0,10,1,
937,7,27,2023,12,19,55,35,-1729,894,3601,-2,7,-3,
938,7,27,2023,12,19,55,45,-1732,885,3599,-1,8,1,
939,7,27,2023,12,19,55,55,-1719,884,3602,4,5,-1,
940,7,27,2023,12,19,55,65,-1723,887,3609,0,7,-6,
941,7,27,2023,12,19,55,75,-1730,893,3601,-2,15,-7,
942,7,27,2023,12,19,55,85,-1719,893,3597,0,15,-7,
943,7,27,2023,12,19,55,95,-1729,888,3610,1,17,-4,
944,7,27,2023,12,19,55,105,-1739,880,3604,1,22,-7,
945,7,27,2023,12,19,55,115,-1728,886,3603,3,21,-5,
946,7,27,2023,12,19,55,125,-1734,885,3602,3,18,-1,
947,7,27,2023,12,19,55,135,-1741,891,3606,0,14,-3,
948,7,27,2023,12,19,55,145,-1735,887,3609,-2,8,-5,
949,7,27,2023,12,19,55,155,-1737,884,3604,-5,5,-2,
950,7,27,2023,12,19,55,165,-1732,881,3603,-2,4,-2,
951,7,27,2023,12,19,55,175,-1727,886,3606,-2,-1,-2,
952,7,27,2023,12,19,55,185,-1722,889,3598,-7,-2,-1,
953,7,27,2023,12,19,55,195,-1715,886,3603,-7,1,-3,
954,7,27,2023,12,19,55,205,-1725,895,3604,-5,6,-5,
955,7,27,2023,12,19,55,215,-1729,891,3600,-7,11,-6,
956,7,27,2023,12,19,55,225,-1724,892,3606,-2,17,-3,
957,7,27,2023,12,19,55,235,-1728,892,3606,-4,28,-9,
958,7,27,2023,12,19,55,245,-1734,874,3600,-2,34,-11,
959,7,27,2023,12,19,55,255,-1737,877,3595,3,33,-12,
960,7,27,2023,12,19,55,265,-1726,889,3605,6,31,-5,
961,7,27,2023,12,19,55,275,-1740,889,3594,6,32,-8,
962,7,27,2023,12,19,55,285,-1733,884,3597,6,23,-7,
963,7,27,2023,12,19,55,295,-1734,881,3597,7,21,-10,
964,7,27,2023,12,19,55,305,-1731,886,3599,11,25,-15,
965,7,27,2023,12,19,55,315,-1744,875,3602,15,29,-15,
966,7,27,2023,12,19,55,325,-1745,893,3602,11,21,-10,
967,7,27,2023,12,19,55,335,-1729,901,3601,2,12,-9,
968,7,27,2023,12,19,55,345,-1721,894,3601,0,8,-12,
969,7,27,2023,12,19,55,355,-1742,884,3601,-2,9,-11,
970,7,27,2023,12,19,55,365,-1736,879,3603,-6,12,-11,
971,7,27,2023,12,19,55,375,-1733,874,3603,-4,12,-12,
972,7,27,2023,12,19,55,385,-1744,880,3606,4,11,-6,
973,7,27,2023,12,19,55,395,-1740,889,3606,4,14,-4,
974,7,27,2023,12,19,55,405,-1749,895,3598,2,15,-7,
975,7,27,2023,12,19,55,415,-1747,891,3600,0,15,-9,
976,7,27,2023,12,19,55,425,-1740,885,3601,-7,7,-6,
977,7,27,2023,12,19,55,435,-1733,884,3593,-9,2,-6,
978,7,27,2023,12,19,55,445,-1741,888,3600,-9,-4,-7,
979,7,27,2023,12,19,55,455,-1743,866,3614,-12,-9,-3,
980,7,27,2023,12,19,55,465,-1743,881,3613,-11,-6,-1,
981,7,27,2023,12,19,55,475,-1740,888,3604,-7,-9,5,
982,7,27,2023,12,19,55,485,-1734,885,3599,-8,-12,6,
983,7,27,2023,12,19,55,495,-1727,895,3606,-4,-6,5,
984,7,27,2023,12,19,55,505,-1730,890,3604,-1,4,6,
985,7,27,2023,12,19,55,515,-1728,896,3617,-6,23,2,
986,7,27,2023,12,19,55,525,-1741,888,3605,-10,44,4,
987,7,27,2023,12,19,55,535,-1744,877,3597,-12,51,6,
988,7,27,2023,12,19,55,545,-1759,860,3598,-9,45,11,
989,7,27,2023,12,19,55,555,-1775,865,3602,-4,24,20,
990,7,27,2023,12,19,55,565,-1752,902,3607,1,9,24,
991,7,27,2023,12,19,55,575,-1753,903,3605,-4,5,24,
992,7,27,2023,12,19,55,585,-1749,890,3613,-4,11,22,
993,7,27,2023,12,19,55,595,-1781,860,3619,3,35,28,
994,7,27,2023,12,19,55,605,-1784,848,3613,5,48,43,
995,7,27,2023,12,19,55,615,-1795,856,3609,10,48,63,
996,7,27,2023,12,19,55,625,-1801,840,3606,12,35,84,
997,7,27,2023,12,19,55,635,-1782,878,3599,5,7,100,
998,7,27,2023,12,19,55,645,-1777,900,3603,-11,-22,106,
999,7,27,2023,12,19,55,655,-1753,926,3586,-34,-55,103,
1000,7,27,2023,12,19,55,665,-1717,906,3601,-43,-70,97,
1001,7,27,2023,12,19,55,675,-1709,886,3600,-42,-69,84,
1002,7,27,2023,12,19,55,685,-1693,899,3611,-35,-50,81,
1003,7,27,2023,12,19,55,695,-1671,923,3598,-27,-17,70,
1004,7,27,2023,12,19,55,705,-1689,918,3626,-31,28,56,
1005,7,27,2023,12,19,55,715,-1761,887,3607,-30,53,38,
1006,7,27,2023,12,19,55,725,-1751,882,3591,-30,51,31,
1007,7,27,2023,12,19,55,735,-1722,863,3584,-39,21,32,
1008,7,27,2023,12,19,55,745,-1728,847,3585,-39,-11,39,
1009,7,27,2023,12,19,55,755,-1720,874,3587,-37,-41,46,
1010,7,27,2023,12,19,55,765,-1712,881,3574,-35,-62,49,
1011,7,27,2023,12,19,55,775,-1724,814,3594,-30,-80,47,
1012,7,27,2023,12,19,55,785,-1719,830,3593,-10,-98,54,
1013,7,27,2023,12,19,55,795,-1705,888,3585,3,-109,61,
1014,7,27,2023,12,19,55,805,-1679,877,3534,11,-113,59,
1015,7,27,2023,12,19,55,815,-1530,948,3506,25,-111,45,
1016,7,27,2023,12,19,55,825,-1476,1009,3519,6,-72,0,
1017,7,27,2023,12,19,55,835,-1745,891,3640,-18,-9,-42,
1018,7,27,2023,12,19,55,845,-1814,708,3613,2,-8,-19,
1019,7,27,2023,12,19,55,855,-1641,836,3583,63,-42,29,
1020,7,27,2023,12,19,55,865,-1718,960,3577,84,-55,26,
1021,7,27,2023,12,19,55,885,-1699,842,3647,132,-39,22,
1022,7,27,2023,12,19,55,895,-1810,745,3664,145,-41,35,
1023,7,27,2023,12,19,55,905,-1756,796,3624,183,-65,71,
1024,7,27,2023,12,19,55,915,-1688,932,3597,211,-87,101,
1025,7,27,2023,12,19,55,925,-1759,878,3637,218,-81,115,
1026,7,27,2023,12,19,55,935,-1796,951,3633,221,-83,145,
1027,7,27,2023,12,19,55,945,-1778,1000,3611,196,-99,165,
1028,7,27,2023,12,19,55,955,-1777,894,3614,169,-136,165,
1029,7,27,2023,12,19,55,965,-1723,878,3555,170,-170,181,
1030,7,27,2023,12,19,55,975,-1663,838,3543,222,-166,202,
1031,7,27,2023,12,19,55,985,-1741,765,3626,318,-125,255,
1032,7,27,2023,12,19,55,995,-1718,977,3624,392,-116,302,
1033,7,27,2023,12,19,56,5,-1717,1019,3634,415,-113,312,
1034,7,27,2023,12,19,56,15,-1743,1030,3630,398,-124,301,
1035,7,27,2023,12,19,56,25,-1693,1066,3625,366,-145,291,
1036,7,27,2023,12,19,56,35,-1646,1087,3630,329,-138,269,
1037,7,27,2023,12,19,56,45,-1607,1059,3667,297,-96,234,
1038,7,27,2023,12,19,56,55,-1641,1075,3666,303,-21,192,
1039,7,27,2023,12,19,56,65,-1660,1090,3630,308,44,158,
1040,7,27,2023,12,19,56,75,-1682,1073,3629,276,76,141,
1041,7,27,2023,12,19,56,85,-1714,1074,3610,234,78,127,
1042,7,27,2023,12,19,56,95,-1735,1036,3612,192,46,118,
1043,7,27,2023,12,19,56,105,-1702,1104,3583,157,6,116,
1044,7,27,2023,12,19,56,115,-1679,1079,3605,139,10,119,
1045,7,27,2023,12,19,56,125,-1669,1035,3635,155,60,123,
1046,7,27,2023,12,19,56,135,-1653,1037,3628,186,119,132,
1047,7,27,2023,12,19,56,145,-1629,1051,3619,198,174,135,
1048,7,27,2023,12,19,56,155,-1660,1053,3599,194,205,127,
1049,7,27,2023,12,19,56,165,-1712,1020,3577,182,193,117,
1050,7,27,2023,12,19,56,175,-1724,1014,3578,169,127,100,
1051,7,27,2023,12,19,56,185,-1700,1075,3572,171,53,93,
1052,7,27,2023,12,19,56,195,-1689,1100,3598,168,8,93,
1053,7,27,2023,12,19,56,205,-1682,1082,3607,175,-6,88,
1054,7,27,2023,12,19,56,215,-1685,1042,3611,194,4,87,
1055,7,27,2023,12,19,56,225,-1635,1065,3564,202,10,89,
1056,7,27,2023,12,19,56,235,-1670,1004,3569,187,16,90,
1057,7,27,2023,12,19,56,245,-1649,1027,3505,193,-14,92,
1058,7,27,2023,12,19,56,255,-1603,1117,3509,198,-41,86,
1059,7,27,2023,12,19,56,265,-1619,1153,3498,171,-51,75,
1060,7,27,2023,12,19,56,275,-1591,1137,3514,140,-52,65,
1061,7,27,2023,12,19,56,285,-1627,1109,3553,113,-53,48,
1062,7,27,2023,12,19,56,295,-1676,1073,3577,98,-56,42,
1063,7,27,2023,12,19,56,305,-1681,1008,3598,93,-64,37,
1064,7,27,2023,12,19,56,315,-1515,1052,3447,97,-88,25,
1065,7,27,2023,12,19,56,325,-1303,1308,3355,57,-51,-29,
1066,7,27,2023,12,19,56,335,-1685,1118,3513,-67,35,-103,
1067,7,27,2023,12,19,56,345,-1734,936,3624,-69,15,-90,
1068,7,27,2023,12,19,56,355,-1557,1188,3475,15,-18,-47,
1069,7,27,2023,12,19,56,365,-1237,1321,3238,18,37,-75,
1070,7,27,2023,12,19,56,375,-1095,1532,3239,-86,214,-201,
1071,7,27,2023,12,19,56,385,-1558,1220,3548,-217,426,-334,
1072,7,27,2023,12,19,56,395,-1773,983,3671,-106,495,-365,
1073,7,27,2023,12,19,56,405,-1600,965,3510,109,508,-314,
1074,7,27,2023,12,19,56,415,-1152,1395,3333,197,591,-319,
1075,7,27,2023,12,19,56,425,-1229,1318,3415,112,808,-427,
1076,7,27,2023,12,19,56,435,-1329,937,3643,105,1072,-490,
1077,7,27,2023,12,19,56,445,-1353,969,3792,270,1322,-508,
1078,7,27,2023,12,19,56,455,-1491,1025,3831,359,1740,-519,
1079,7,27,2023,12,19,56,465,-1719,511,4041,319,2298,-565,
1080,7,27,2023,12,19,56,475,-1572,704,3909,479,2848,-531,
1081,7,27,2023,12,19,56,485,-1603,929,3707,634,3591,-555,
1082,7,27,2023,12,19,56,495,-1488,1614,3912,876,4578,-784,
1083,7,27,2023,12,19,56,505,-1456,955,3974,742,5686,-963,
1084,7,27,2023,12,19,56,515,-2093,952,3676,773,6994,-1133,
1085,7,27,2023,12,19,56,525,-1936,1392,3901,677,8383,-1421,
1086,7,27,2023,12,19,56,535,-1703,1621,4203,554,9724,-1758,
1087,7,27,2023,12,19,56,545,-2188,2087,4325,205,10872,-2120,
1088,7,27,2023,12,19,56,555,-2952,2626,4615,-296,11551,-2470,
1089,7,27,2023,12,19,56,565,-3615,1979,4419,-535,11792,-2859,
1090,7,27,2023,12,19,56,575,-4752,2036,5237,-316,11895,-3224,
1091,7,27,2023,12,19,56,585,-5947,1492,5180,-265,11893,-3370,
1092,7,27,2023,12,19,56,595,-8305,1300,7036,521,11244,-3217,
1093,7,27,2023,12,19,56,605,-8936,1565,6105,1808,9637,-3286,
1094,7,27,2023,12,19,56,615,-10231,2731,1634,3212,8491,-3349,
1095,7,27,2023,12,19,56,625,-12665,4778,6,2819,7902,-3484,
1096,7,27,2023,12,19,56,635,-18872,5803,7828,519,8265,-3626,
1097,7,27,2023,12,19,56,645,-14085,2868,8134,-1334,5325,-3087,
1098,7,27,2023,12,19,56,655,-9436,-895,4328,-1494,2551,-3122,
1099,7,27,2023,12,19,56,665,-8506,-1451,3832,-5,1990,-4004,
1100,7,27,2023,12,19,56,675,-8240,551,4702,1612,1700,-4758,
1101,7,27,2023,12,19,56,685,-7618,2231,5435,1892,1062,-5124,
1102,7,27,2023,12,19,56,695,-6615,3096,5909,1124,70,-5084,
1103,7,27,2023,12,19,56,705,-5216,3574,5890,41,-1184,-4618,
1104,7,27,2023,12,19,56,715,-3648,3568,5531,-1055,-2445,-3813,
1105,7,27,2023,12,19,56,725,-2063,3339,4959,-1954,-3606,-2817,
1106,7,27,2023,12,19,56,745,963,2072,2738,-2733,-5322,-906,
1107,7,27,2023,12,19,56,755,2350,1216,1264,-2419,-5714,-181,
1108,7,27,2023,12,19,56,765,3141,777,375,-1672,-5636,297,
1109,7,27,2023,12,19,56,775,3314,889,194,-752,-5330,639,
1110,7,27,2023,12,19,56,785,3336,1256,325,-24,-5095,945,
1111,7,27,2023,12,19,56,795,3082,1439,741,427,-5062,1260,
1112,7,27,2023,12,19,56,805,2980,1281,870,827,-5286,1732,
1113,7,27,2023,12,19,56,815,3252,841,381,1264,-5575,2307,
1114,7,27,2023,12,19,56,825,3347,368,-69,1650,-5629,2788,
1115,7,27,2023,12,19,56,835,2921,20,119,1903,-5504,3095,
1116,7,27,2023,12,19,56,845,2180,-256,711,2009,-5478,3240,
1117,7,27,2023,12,19,56,855,1532,-650,1177,2058,-5714,3253,
1118,7,27,2023,12,19,56,865,1031,-1184,1388,2162,-6109,3106,
1119,7,27,2023,12,19,56,875,317,-1460,1401,2376,-6574,2742,
1120,7,27,2023,12,19,56,885,-828,-1404,1125,2612,-7055,2218,
1121,7,27,2023,12,19,56,895,-1671,-1073,178,2601,-7389,1708,
1122,7,27,2023,12,19,56,905,-2268,-827,-745,2257,-7296,1263,
1123,7,27,2023,12,19,56,915,-3204,-1176,-904,1984,-6816,1071,
1124,7,27,2023,12,19,56,925,-4821,-1375,-1055,2310,-6359,1221,
1125,7,27,2023,12,19,56,935,-6248,-1108,-2149,2792,-5905,1585,
1126,7,27,2023,12,19,56,945,-7145,-1048,-3246,2639,-4914,1975,
1127,7,27,2023,12,19,56,955,-8049,-1198,-3352,1998,-3423,2293,
1128,7,27,2023,12,19,56,965,-8871,-1023,-2578,1341,-1955,2636,
1129,7,27,2023,12,19,56,975,-9308,-606,-1584,729,-902,3032,
1130,7,27,2023,12,19,56,985,-8721,-636,-1410,53,-292,3380,
1131,7,27,2023,12,19,56,995,-7504,-1129,-1822,-567,251,3468,
1132,7,27,2023,12,19,57,5,-6204,-1756,-2453,-817,966,3237,
1133,7,27,2023,12,19,57,15,-4638,-1726,-3041,-670,1897,2660,
1134,7,27,2023,12,19,57,25,-6132,977,196,-652,3003,1906,
1135,7,27,2023,12,19,57,35,-21432,6242,18288,-4799,2013,179,
1136,7,27,2023,12,19,57,45,-3594,-7457,3099,-3419,-4933,349,
1137,7,27,2023,12,19,57,55,2392,5525,4476,664,-6447,-739,
1138,7,27,2023,12,19,57,65,354,159,6105,-282,-5167,-327,
1139,7,27,2023,12,19,57,75,-1071,-999,4551,-662,-3912,-671,
1140,7,27,2023,12,19,57,85,-1028,-129,3957,-798,-1812,-470,
1141,7,27,2023,12,19,57,95,-925,48,4041,-620,-110,-127,
1142,7,27,2023,12,19,57,105,-2543,1223,3330,-501,333,92,
1143,7,27,2023,12,19,57,115,-3378,1430,2951,-551,-85,45,
1144,7,27,2023,12,19,57,125,-2994,708,3192,-605,-897,-167,
1145,7,27,2023,12,19,57,135,-2634,894,3271,-660,-1801,-279,
1146,7,27,2023,12,19,57,145,-2097,748,3464,-750,-2387,-278,
1147,7,27,2023,12,19,57,155,-1685,577,3628,-763,-2392,-172,
1148,7,27,2023,12,19,57,165,-1466,666,3712,-617,-1967,-22,
1149,7,27,2023,12,19,57,175,-1347,778,3863,-466,-1408,71,
1150,7,27,2023,12,19,57,185,-1444,908,3790,-424,-945,76,
1151,7,27,2023,12,19,57,195,-1633,837,3703,-389,-606,27,
1152,7,27,2023,12,19,57,205,-1761,775,3640,-319,-418,-15,
1153,7,27,2023,12,19,57,215,-1809,647,3662,-264,-353,-18,
1154,7,27,2023,12,19,57,225,-1735,604,3693,-195,-316,7,
1155,7,27,2023,12,19,57,235,-1645,670,3699,-115,-232,31,
1156,7,27,2023,12,19,57,245,-1588,716,3709,-50,-106,16,
1157,7,27,2023,12,19,57,255,-1591,705,3713,4,48,-14,
1158,7,27,2023,12,19,57,265,-1550,789,3694,44,212,-54,
1159,7,27,2023,12,19,57,275,-1592,773,3709,60,387,-102,
1160,7,27,2023,12,19,57,285,-1691,675,3702,85,557,-143,
1161,7,27,2023,12,19,57,295,-1733,675,3665,123,686,-149,
1162,7,27,2023,12,19,57,305,-1766,683,3658,151,782,-142,
1163,7,27,2023,12,19,57,315,-1753,733,3605,169,848,-133,
1164,7,27,2023,12,19,57,325,-1739,808,3572,159,911,-137,
1165,7,27,2023,12,19,57,335,-1737,840,3608,144,989,-184,
1166,7,27,2023,12,19,57,345,-1749,880,3601,109,1076,-249,
1167,7,27,2023,12,19,57,355,-1925,821,3526,55,1129,-310,
1168,7,27,2023,12,19,57,365,-1928,748,3392,35,1111,-364,
1169,7,27,2023,12,19,57,375,-1808,763,3474,61,1087,-391,
1170,7,27,2023,12,19,57,385,-1798,716,3493,67,1108,-404,
1171,7,27,2023,12,19,57,395,-1892,637,3573,66,1138,-420,
1172,7,27,2023,12,19,57,405,-2095,602,3505,60,1093,-419,
1173,7,27,2023,12,19,57,415,-2258,515,3386,81,959,-392,
1174,7,27,2023,12,19,57,425,-2210,497,3324,119,759,-294,
1175,7,27,2023,12,19,57,435,-1933,744,3391,145,597,-154,
1176,7,27,2023,12,19,57,445,-1856,928,3422,115,542,-109,
1177,7,27,2023,12,19,57,455,-1915,849,3439,73,555,-164,
1178,7,27,2023,12,19,57,465,-1916,660,3347,71,584,-256,
1179,7,27,2023,12,19,57,475,-1810,699,3434,108,618,-307,
1180,7,27,2023,12,19,57,485,-1985,651,3434,132,725,-335,
1181,7,27,2023,12,19,57,495,-1878,689,3521,182,919,-377,
1182,7,27,2023,12,19,57,505,-1862,724,3671,228,1211,-451,
1183,7,27,2023,12,19,57,515,-1954,610,3643,201,1572,-475,
1184,7,27,2023,12,19,57,525,-1930,592,3566,203,1950,-468,
1185,7,27,2023,12,19,57,535,-2045,577,3674,287,2382,-483,
1186,7,27,2023,12,19,57,545,-2057,631,3667,431,2913,-509,
1187,7,27,2023,12,19,57,555,-2072,775,3615,606,3529,-598,
1188,7,27,2023,12,19,57,565,-2045,711,3670,650,4229,-747,
1189,7,27,2023,12,19,57,575,-2096,550,3653,638,5025,-857,
1190,7,27,2023,12,19,57,585,-2034,593,3557,717,6009,-878,
1191,7,27,2023,12,19,57,605,-2356,647,3689,812,8290,-913,
1192,7,27,2023,12,19,57,615,-2605,825,3996,683,9239,-899,
1193,7,27,2023,12,19,57,625,-2802,1470,4156,453,9967,-945,
1194,7,27,2023,12,19,57,635,-3826,1764,4482,-3,10462,-1198,
1195,7,27,2023,12,19,57,645,-6214,2074,5292,-384,10347,-1657,
1196,7,27,2023,12,19,57,655,-7754,2217,5724,-109,9464,-2169,
1197,7,27,2023,12,19,57,665,-8976,2706,8073,1137,7750,-2550,
1198,7,27,2023,12,19,57,675,-8032,1949,3433,1915,5781,-3404,
1199,7,27,2023,12,19,57,685,-9740,1743,1165,1207,5300,-4535,
1200,7,27,2023,12,19,57,695,-18131,3149,7686,-23,5443,-5611,
1201,7,27,2023,12,19,57,705,-15761,3358,8996,-235,2176,-4747,
1202,7,27,2023,12,19,57,715,-9734,2184,3980,-68,-967,-3599,
1203,7,27,2023,12,19,57,725,-7218,1391,2136,-562,-386,-3642,
1204,7,27,2023,12,19,57,735,-6843,1525,2910,-1170,1130,-3835,
1205,7,27,2023,12,19,57,745,-6688,2118,4556,-1526,2070,-3505,
1206,7,27,2023,12,19,57,755,-6003,2772,5543,-1927,2162,-2738,
1207,7,27,2023,12,19,57,765,-4724,2891,5695,-2660,1763,-1880,
1208,7,27,2023,12,19,57,775,-3530,2291,5608,-3401,1238,-1119,
1209,7,27,2023,12,19,57,785,-2513,1520,5436,-3567,571,-388,
1210,7,27,2023,12,19,57,795,-1484,1047,5029,-3116,-297,283,
1211,7,27,2023,12,19,57,805,-322,899,4109,-2495,-1221,777,
1212,7,27,2023,12,19,57,815,733,786,3090,-2153,-1909,992,
1213,7,27,2023,12,19,57,825,1339,547,2480,-1984,-2293,1010,
1214,7,27,2023,12,19,57,835,1636,441,2214,-1597,-2585,1058,
1215,7,27,2023,12,19,57,845,2103,552,1755,-989,-2915,1199,
1216,7,27,2023,12,19,57,855,2514,675,1185,-459,-3110,1318,
1217,7,27,2023,12,19,57,865,2651,773,905,-112,-3131,1397,
1218,7,27,2023,12,19,57,875,2511,803,1058,177,-3130,1521,
1219,7,27,2023,12,19,57,885,2085,844,1473,471,-3288,1718,
1220,7,27,2023,12,19,57,895,1738,696,1705,753,-3701,1935,
1221,7,27,2023,12,19,57,905,1624,403,1574,1006,-4244,2082,
1222,7,27,2023,12,19,57,915,1519,160,1372,1229,-4732,2117,
1223,7,27,2023,12,19,57,925,1241,-98,1339,1437,-5121,2038,
1224,7,27,2023,12,19,57,935,704,-346,1517,1738,-5502,1921,
1225,7,27,2023,12,19,57,945,212,-433,1363,2166,-6004,1824,
1226,7,27,2023,12,19,57,955,-303,-631,967,2560,-6459,1726,
1227,7,27,2023,12,19,57,965,-1062,-827,464,2914,-6784,1645,
1228,7,27,2023,12,19,57,975,-1579,-873,-471,3181,-6952,1591,
1229,7,27,2023,12,19,57,985,-2062,-995,-1252,3180,-6718,1562,
1230,7,27,2023,12,19,57,995,-3000,-1027,-1321,3004,-6138,1603,
1231,7,27,2023,12,19,58,5,-4220,-1113,-1145,2802,-5516,1794,
1232,7,27,2023,12,19,58,15,-5533,-1156,-1011,2708,-4963,2176,
1233,7,27,2023,12,19,58,25,-6957,-1132,-1075,2660,-4494,2671,
1234,7,27,2023,12,19,58,35,-7793,-1204,-1887,2407,-4086,3127,
1235,7,27,2023,12,19,58,45,-8002,-1395,-3033,1807,-3488,3283,
1236,7,27,2023,12,19,58,55,-7519,-1716,-4165,1033,-2587,3161,
1237,7,27,2023,12,19,58,65,-7241,-2041,-5349,514,-1378,2874,
1238,7,27,2023,12,19,58,75,-27478,-4718,1446,-1574,243,654,
1239,7,27,2023,12,19,58,85,-14383,-3888,286,-2806,-1774,-2784,
1240,7,27,2023,12,19,58,95,2451,3529,5467,769,-4129,-1273,
1241,7,27,2023,12,19,58,105,4375,-2220,8279,642,-4085,182,
1242,7,27,2023,12,19,58,115,-2895,1219,4181,155,-4225,116,
1243,7,27,2023,12,19,58,125,-4306,1040,2434,-579,-3141,594,
1244,7,27,2023,12,19,58,135,-1069,278,3934,-399,-1947,386,
1245,7,27,2023,12,19,58,145,-1767,1293,3573,-307,-1661,258,
1246,7,27,2023,12,19,58,155,-2973,1303,2942,-509,-1863,114,
1247,7,27,2023,12,19,58,165,-2459,271,3319,-493,-2047,4,
1248,7,27,2023,12,19,58,175,-2326,801,3386,-405,-2285,78,
1249,7,27,2023,12,19,58,185,-1839,612,3600,-392,-2331,129,
1250,7,27,2023,12,19,58,195,-1751,892,3705,-330,-2120,166,
1251,7,27,2023,12,19,58,205,-1701,1002,3787,-304,-1813,91,
1252,7,27,2023,12,19,58,215,-1592,997,3783,-330,-1522,-51,
1253,7,27,2023,12,19,58,225,-1568,982,3784,-382,-1247,-189,
1254,7,27,2023,12,19,58,235,-1586,809,3826,-400,-971,-272,
1255,7,27,2023,12,19,58,245,-1677,724,3756,-380,-712,-270,
1256,7,27,2023,12,19,58,255,-1766,772,3659,-344,-541,-222,
1257,7,27,2023,12,19,58,265,-1867,753,3618,-308,-473,-201,
1258,7,27,2023,12,19,58,275,-1796,761,3635,-259,-453,-193,
1259,7,27,2023,12,19,58,285,-1671,791,3688,-210,-415,-194,
1260,7,27,2023,12,19,58,295,-1633,748,3725,-167,-315,-173,
1261,7,27,2023,12,19,58,305,-1572,707,3795,-116,-155,-133,
1262,7,27,2023,12,19,58,315,-1539,744,3780,-81,36,-75,
1263,7,27,2023,12,19,58,325,-1619,777,3709,-75,207,-36,
1264,7,27,2023,12,19,58,335,-1698,781,3649,-67,325,-28,
1265,7,27,2023,12,19,58,345,-1680,793,3642,-41,402,-57,
1266,7,27,2023,12,19,58,355,-1584,816,3655,-3,504,-102,
1267,7,27,2023,12,19,58,365,-1585,793,3656,27,634,-160,
1268,7,27,2023,12,19,58,375,-1699,772,3649,46,745,-211,
1269,7,27,2023,12,19,58,385,-1802,681,3603,37,814,-228,
1270,7,27,2023,12,19,58,395,-1787,658,3513,40,828,-198,
1271,7,27,2023,12,19,58,405,-1797,662,3468,56,794,-150,
1272,7,27,2023,12,19,58,415,-1895,739,3527,82,755,-105,
1273,7,27,2023,12,19,58,425,-1936,753,3458,87,691,-96,
1274,7,27,2023,12,19,58,435,-1858,869,3496,90,600,-122,
1275,7,27,2023,12,19,58,445,-1996,817,3430,32,457,-169,
1276,7,27,2023,12,19,58,465,-1738,704,3468,82,152,-187,
1277,7,27,2023,12,19,58,475,-1703,835,3545,63,127,-138,
1278,7,27,2023,12,19,58,485,-1843,782,3578,12,170,-119,
1279,7,27,2023,12,19,58,495,-1916,837,3492,-8,198,-132,
1280,7,27,2023,12,19,58,505,-1771,769,3430,-7,191,-183,
1281,7,27,2023,12,19,58,515,-1581,713,3503,8,227,-215,
1282,7,27,2023,12,19,58,525,-1623,695,3586,-1,349,-191,
1283,7,27,2023,12,19,58,535,-1535,663,3617,-23,541,-167,
1284,7,27,2023,12,19,58,545,-1561,631,3606,-39,823,-161,
1285,7,27,2023,12,19,58,555,-1643,775,3707,-36,1183,-173,
1286,7,27,2023,12,19,58,565,-1620,858,3848,-58,1608,-241,
1287,7,27,2023,12,19,58,575,-1644,781,3782,-106,2118,-356,
1288,7,27,2023,12,19,58,585,-1817,734,3793,-111,2673,-487,
1289,7,27,2023,12,19,58,595,-1844,672,3869,-110,3267,-595,
1290,7,27,2023,12,19,58,605,-1751,683,4006,-115,4018,-657,
1291,7,27,2023,12,19,58,615,-1975,911,3875,-124,5033,-772,
1292,7,27,2023,12,19,58,625,-1986,931,3982,-203,6267,-1020,
1293,7,27,2023,12,19,58,635,-1888,1241,4162,-266,7441,-1386,
1294,7,27,2023,12,19,58,645,-1827,1189,4079,-590,8537,-1842,
1295,7,27,2023,12,19,58,655,-1852,1167,4224,-1067,9589,-2193,
1296,7,27,2023,12,19,58,665,-2449,1127,4335,-1603,10525,-2553,
1297,7,27,2023,12,19,58,675,-3285,1398,4427,-1988,11293,-2989,
1298,7,27,2023,12,19,58,685,-5635,868,5588,-2131,11732,-3261,
1299,7,27,2023,12,19,58,695,-7219,2057,6744,-1647,11308,-3335,
1300,7,27,2023,12,19,58,705,-8340,2008,7008,-1209,10066,-2843,
1301,7,27,2023,12,19,58,715,-8544,1111,2800,-902,9092,-2250,
1302,7,27,2023,12,19,58,725,-11614,2432,1541,-1650,8329,-1425,
1303,7,27,2023,12,19,58,735,-17737,2155,7923,-2217,7862,-412,
1304,7,27,2023,12,19,58,745,-13521,448,8940,-1839,4756,194,
1305,7,27,2023,12,19,58,755,-8299,-2638,4756,-1029,1719,-189,
1306,7,27,2023,12,19,58,765,-6192,-3125,3282,481,1379,-1437,
1307,7,27,2023,12,19,58,775,-5854,-1096,3823,1829,1905,-2714,
1308,7,27,2023,12,19,58,785,-6126,851,5063,1973,2094,-3549,
1309,7,27,2023,12,19,58,795,-5988,1756,5986,1275,1571,-3784,
1310,7,27,2023,12,19,58,805,-4745,2241,5737,422,516,-3510,
1311,7,27,2023,12,19,58,815,-3202,2228,4901,-411,-379,-2981,
1312,7,27,2023,12,19,58,825,-2272,1976,4471,-953,-903,-2298,
1313,7,27,2023,12,19,58,835,-1774,1901,4263,-1024,-1435,-1439,
1314,7,27,2023,12,19,58,845,-1195,1957,3917,-918,-2108,-531,
1315,7,27,2023,12,19,58,855,-442,1785,3346,-936,-2773,268,
1316,7,27,2023,12,19,58,865,240,1275,2665,-978,-3260,905,
1317,7,27,2023,12,19,58,875,541,753,2243,-752,-3561,1392,
1318,7,27,2023,12,19,58,885,674,575,2057,-243,-3799,1762,
1319,7,27,2023,12,19,58,895,925,683,1917,230,-4044,2038,
1320,7,27,2023,12,19,58,905,1181,718,1794,429,-4252,2186,
1321,7,27,2023,12,19,58,915,1207,506,1770,484,-4422,2243,
1322,7,27,2023,12,19,58,925,1138,273,1733,661,-4659,2299,
1323,7,27,2023,12,19,58,935,1175,96,1522,979,-4960,2335,
1324,7,27,2023,12,19,58,945,1097,-34,1420,1299,-5228,2275,
1325,7,27,2023,12,19,58,955,923,-145,1311,1598,-5496,2156,
1326,7,27,2023,12,19,58,965,717,-255,1129,1848,-5761,1988,
1327,7,27,2023,12,19,58,975,453,-287,989,2040,-5977,1767,
1328,7,27,2023,12,19,58,985,24,-442,1106,2232,-6147,1564,
1329,7,27,2023,12,19,58,995,-601,-466,1292,2496,-6378,1409,
1330,7,27,2023,12,19,59,5,-1184,-218,1180,2651,-6698,1254,
1331,7,27,2023,12,19,59,15,-1863,96,834,2517,-6970,1119,
1332,7,27,2023,12,19,59,25,-2513,522,243,2127,-7093,1161,
1333,7,27,2023,12,19,59,35,-2864,529,-613,1622,-6951,1528,
1334,7,27,2023,12,19,59,45,-3303,-345,-1329,1343,-6457,2180,
1335,7,27,2023,12,19,59,55,-4286,-1144,-1648,1588,-5750,2813,
1336,7,27,2023,12,19,59,65,-5371,-1360,-1914,1913,-5022,3188,
1337,7,27,2023,12,19,59,75,-6364,-1734,-2207,1853,-4274,3298,
1338,7,27,2023,12,19,59,85,-7039,-2019,-2676,1546,-3483,3195,
1339,7,27,2023,12,19,59,95,-7605,-1899,-2734,1133,-2574,2928,
1340,7,27,2023,12,19,59,105,-7624,-1551,-2732,479,-1688,2565,
1341,7,27,2023,12,19,59,115,-7301,-1431,-2525,-175,-851,2150,
1342,7,27,2023,12,19,59,125,-6489,-1088,-2636,-490,-166,1871,
1343,7,27,2023,12,19,59,135,-6826,658,-456,-832,1325,1540,
1344,7,27,2023,12,19,59,145,-24004,5985,16161,-4597,105,340,
1345,7,27,2023,12,19,59,155,-5338,-5924,3426,-1994,-5480,348,
1346,7,27,2023,12,19,59,165,4354,1627,5257,1142,-5911,-1053,
1347,7,27,2023,12,19,59,175,3921,2507,5012,335,-4123,-1129,
1348,7,27,2023,12,19,59,185,-1981,-1001,4661,-443,-2824,-689,
1349,7,27,2023,12,19,59,195,-2938,300,3546,-569,-1611,-416,
1350,7,27,2023,12,19,59,205,-1191,-381,3958,-419,-716,116,
1351,7,27,2023,12,19,59,215,-1914,1181,3543,-235,-613,385,
1352,7,27,2023,12,19,59,225,-2870,1624,3074,-295,-927,314,
1353,7,27,2023,12,19,59,235,-2582,541,3404,-289,-1423,83,
1354,7,27,2023,12,19,59,245,-2189,420,3612,-124,-1876,52,
1355,7,27,2023,12,19,59,255,-1466,572,3781,35,-1965,187,
1356,7,27,2023,12,19,59,265,-1202,659,4046,160,-1655,329,
1357,7,27,2023,12,19,59,275,-1269,1017,4100,244,-1140,324,
1358,7,27,2023,12,19,59,285,-1227,1075,4059,249,-603,184,
1359,7,27,2023,12,19,59,295,-1194,884,3887,240,-148,57,
1360,7,27,2023,12,19,59,305,-1268,735,3805,287,224,26,
1361,7,27,2023,12,19,59,325,-1473,827,3863,428,672,28,
1362,7,27,2023,12,19,59,335,-1388,900,3810,482,898,-11,
1363,7,27,2023,12,19,59,345,-1415,887,3759,531,1143,-56,
1364,7,27,2023,12,19,59,355,-1597,844,3757,564,1353,-74,
1365,7,27,2023,12,19,59,365,-1828,881,3756,592,1486,-68,
1366,7,27,2023,12,19,59,375,-1548,924,3608,606,1599,-67,
1367,7,27,2023,12,19,59,385,-1506,1032,3539,586,1727,-104,
1368,7,27,2023,12,19,59,395,-1995,982,3594,511,1779,-158,
1369,7,27,2023,12,19,59,405,-2104,933,3495,446,1691,-166,
1370,7,27,2023,12,19,59,415,-1968,962,3371,409,1520,-157,
1371,7,27,2023,12,19,59,425,-1876,936,3322,372,1362,-120,
1372,7,27,2023,12,19,59,435,-1906,1003,3428,344,1246,-84,
1373,7,27,2023,12,19,59,445,-2006,1072,3493,310,1172,-91,
1374,7,27,2023,12,19,59,455,-1756,1061,3453,287,1149,-141,
1375,7,27,2023,12,19,59,465,-1773,995,3438,266,1162,-209,
1376,7,27,2023,12,19,59,475,-2169,858,3458,246,1115,-246,
1377,7,27,2023,12,19,59,485,-2334,785,3397,245,954,-206,
1378,7,27,2023,12,19,59,495,-2086,818,3287,246,745,-112,
1379,7,27,2023,12,19,59,505,-1966,930,3261,239,566,-10,
1380,7,27,2023,12,19,59,515,-2154,1027,3378,218,395,50,
1381,7,27,2023,12,19,59,525,-2256,1065,3347,170,197,55,
1382,7,27,2023,12,19,59,535,-2030,1051,3308,105,28,41,
1383,7,27,2023,12,19,59,545,-2053,1034,3287,55,-109,16,
1384,7,27,2023,12,19,59,555,-2301,934,3324,4,-292,17,
1385,7,27,2023,12,19,59,565,-2359,812,3305,-25,-554,60,
1386,7,27,2023,12,19,59,575,-2032,783,3214,-12,-829,154,
1387,7,27,2023,12,19,59,585,-1745,890,3394,60,-959,234,
1388,7,27,2023,12,19,59,595,-1935,1151,3516,88,-923,248,
1389,7,27,2023,12,19,59,605,-1833,1232,3477,87,-839,153,
1390,7,27,2023,12,19,59,615,-1518,1146,3484,83,-675,-5,
1391,7,27,2023,12,19,59,625,-1463,1085,3538,46,-430,-149,
1392,7,27,2023,12,19,59,635,-1668,970,3620,19,-148,-252,
1393,7,27,2023,12,19,59,645,-1432,878,3682,33,211,-305,
1394,7,27,2023,12,19,59,655,-1171,871,3746,95,733,-347,
1395,7,27,2023,12,19,59,665,-1166,934,3772,177,1400,-403,
1396,7,27,2023,12,19,59,675,-1473,995,3806,247,2093,-504,
1397,7,27,2023,12,19,59,685,-1688,1025,3834,290,2781,-611,
1398,7,27,2023,12,19,59,695,-1415,809,3791,344,3576,-703,
1399,7,27,2023,12,19,59,705,-1542,831,3724,484,4582,-779,
1400,7,27,2023,12,19,59,715,-2003,646,3632,656,5787,-869,
1401,7,27,2023,12,19,59,725,-2008,571,3623,923,7143,-944,
1402,7,27,2023,12,19,59,735,-1855,747,3480,1148,8608,-1021,
1403,7,27,2023,12,19,59,745,-1994,1064,3562,1224,10042,-1167,
1404,7,27,2023,12,19,59,755,-2448,1451,4122,1054,11042,-1330,
1405,7,27,2023,12,19,59,765,-3167,2157,4769,715,11524,-1479,
1406,7,27,2023,12,19,59,775,-4183,1686,4851,361,11485,-1667,
1407,7,27,2023,12,19,59,785,-5299,1801,5482,519,11064,-1838,
1408,7,27,2023,12,19,59,795,-6533,1666,5374,403,10350,-1952,
1409,7,27,2023,12,19,59,805,-8407,1179,6432,921,9318,-1756,
1410,7,27,2023,12,19,59,815,-9326,1320,4778,1033,7756,-2156,
1411,7,27,2023,12,19,59,825,-9760,11,3212,1140,6374,-2561,
1412,7,27,2023,12,19,59,835,-14816,2633,3640,977,5258,-3873,
1413,7,27,2023,12,19,59,845,-15949,5010,10681,-1032,4067,-5173,
1414,7,27,2023,12,19,59,855,-10822,3080,7121,-3128,57,-5073,
1415,7,27,2023,12,19,59,865,-7562,1115,4068,-3900,-1153,-5417,
1416,7,27,2023,12,19,59,875,-6664,429,3805,-3197,-607,-5862,
1417,7,27,2023,12,19,59,885,-5928,999,4202,-1692,-112,-5705,
1418,7,27,2023,12,19,59,895,-5236,2393,4604,-536,138,-5128,
1419,7,27,2023,12,19,59,905,-4597,3630,4989,-473,174,-4459,
1420,7,27,2023,12,19,59,915,-3775,4308,5142,-1348,-88,-3632,
1421,7,27,2023,12,19,59,925,-2653,4231,4863,-2580,-561,-2625,
1422,7,27,2023,12,19,59,935,-1432,3533,4197,-3471,-1055,-1450,
1423,7,27,2023,12,19,59,945,-390,2723,3424,-3625,-1483,-184,
1424,7,27,2023,12,19,59,955,431,2011,2778,-3177,-1794,1008,
1425,7,27,2023,12,19,59,965,774,1276,2366,-2428,-2046,1945,
1426,7,27,2023,12,19,59,975,891,754,2002,-1569,-2346,2519,
1427,7,27,2023,12,19,59,985,994,446,1765,-851,-2649,2735,
1428,7,27,2023,12,19,59,995,996,267,1871,-393,-2926,2683,
1429,7,27,2023,12,20,0,5,823,128,2025,-101,-3310,2503,
1430,7,27,2023,12,20,0,15,718,-3,2041,151,-3837,2291,
1431,7,27,2023,12,20,0,25,853,-156,1803,424,-4396,2087,
1432,7,27,2023,12,20,0,35,1132,-532,1313,756,-4854,1891,
1433,7,27,2023,12,20,0,45,1169,-861,943,1207,-5140,1634,
1434,7,27,2023,12,20,0,55,895,-858,888,1687,-5322,1301,
1435,7,27,2023,12,20,0,65,484,-607,982,2000,-5534,958,
1436,7,27,2023,12,20,0,75,78,-353,1119,2061,-5818,672,
1437,7,27,2023,12,20,0,85,-372,-360,1288,2019,-6189,496,
1438,7,27,2023,12,20,0,95,-689,-539,1062,2105,-6656,434,
1439,7,27,2023,12,20,0,105,-874,-422,329,2265,-7053,339,
1440,7,27,2023,12,20,0,115,-1232,39,-331,2220,-7132,221,
1441,7,27,2023,12,20,0,125,-1854,436,-618,1942,-6918,283,
1442,7,27,2023,12,20,0,135,-2606,302,-763,1717,-6579,697,
1443,7,27,2023,12,20,0,145,-3559,-69,-843,1890,-6238,1399,
1444,7,27,2023,12,20,0,155,-4502,-250,-1272,2259,-5951,2186,
1445,7,27,2023,12,20,0,165,-5376,-638,-2064,2367,-5511,2842,
1446,7,27,2023,12,20,0,185,-7038,-1405,-3079,1759,-3797,3270,
1447,7,27,2023,12,20,0,195,-7520,-1351,-3035,1310,-2807,3143,
1448,7,27,2023,12,20,0,205,-7296,-1176,-3240,834,-1944,2903,
1449,7,27,2023,12,20,0,215,-5874,-1141,-4397,426,-1041,2665,
1450,7,27,2023,12,20,0,225,-3825,-987,-5627,234,316,2442,
1451,7,27,2023,12,20,0,235,-19092,-96,13278,-964,1463,1832,
1452,7,27,2023,12,20,0,245,-13317,-7569,2983,-2148,-3638,-223,
1453,7,27,2023,12,20,0,255,1318,4947,3104,1141,-6314,-615,
1454,7,27,2023,12,20,0,265,5386,-627,6469,936,-4727,466,
1455,7,27,2023,12,20,0,275,-308,426,4751,-181,-4107,-105,
1456,7,27,2023,12,20,0,285,-3338,2611,3265,-1050,-2686,-81,
1457,7,27,2023,12,20,0,295,-716,-555,4394,-1031,-985,-132,
1458,7,27,2023,12,20,0,305,-906,338,3928,-677,-174,-204,
1459,7,27,2023,12,20,0,315,-2427,1995,3253,-705,23,-142,
1460,7,27,2023,12,20,0,325,-2713,500,3339,-833,-298,-279,
1461,7,27,2023,12,20,0,335,-2559,443,3391,-738,-897,-274,
1462,7,27,2023,12,20,0,345,-2377,607,3414,-606,-1429,-166,
1463,7,27,2023,12,20,0,355,-1895,565,3609,-539,-1756,-37,
1464,7,27,2023,12,20,0,365,-1822,608,3759,-508,-1878,117,
1465,7,27,2023,12,20,0,375,-1757,736,3809,-484,-1866,168,
1466,7,27,2023,12,20,0,385,-1487,921,3777,-470,-1793,129,
1467,7,27,2023,12,20,0,395,-1478,815,3854,-470,-1635,62,
1468,7,27,2023,12,20,0,405,-1450,701,3921,-432,-1410,28,
1469,7,27,2023,12,20,0,415,-1434,683,3861,-374,-1198,48,
1470,7,27,2023,12,20,0,425,-1508,658,3829,-340,-1050,66,
1471,7,27,2023,12,20,0,435,-1578,575,3831,-288,-977,75,
1472,7,27,2023,12,20,0,445,-1547,578,3850,-193,-940,74,
1473,7,27,2023,12,20,0,455,-1440,585,3868,-99,-888,78,
1474,7,27,2023,12,20,0,465,-1202,610,3855,-4,-771,79,
1475,7,27,2023,12,20,0,475,-1194,613,3907,71,-580,81,
1476,7,27,2023,12,20,0,485,-1280,518,3960,139,-369,83,
1477,7,27,2023,12,20,0,495,-1293,518,3931,225,-181,116,
1478,7,27,2023,12,20,0,505,-1303,603,3834,307,-32,159,
1479,7,27,2023,12,20,0,515,-1093,739,3769,379,117,177,
1480,7,27,2023,12,20,0,525,-1264,850,3885,387,307,143,
1481,7,27,2023,12,20,0,535,-1416,821,3895,365,453,79,
1482,7,27,2023,12,20,0,545,-1224,763,3768,347,562,31,
1483,7,27,2023,12,20,0,555,-1294,794,3696,335,659,1,
1484,7,27,2023,12,20,0,565,-1430,751,3730,319,706,-23,
1485,7,27,2023,12,20,0,575,-1548,790,3755,281,690,-34,
1486,7,27,2023,12,20,0,585,-1495,871,3646,221,632,-24,
1487,7,27,2023,12,20,0,595,-1367,913,3563,140,546,-42,
1488,7,27,2023,12,20,0,605,-1713,822,3649,42,416,-75,
1489,7,27,2023,12,20,0,615,-1807,824,3672,-35,222,-65,
1490,7,27,2023,12,20,0,625,-1536,826,3600,-102,25,-41,
1491,7,27,2023,12,20,0,635,-1557,762,3620,-163,-119,-45,
1492,7,27,2023,12,20,0,645,-1661,623,3688,-179,-241,-38,
1493,7,27,2023,12,20,0,655,-1692,684,3672,-197,-402,13,
1494,7,27,2023,12,20,0,665,-1661,597,3600,-218,-597,63,
1495,7,27,2023,12,20,0,675,-1441,519,3530,-184,-748,108,
1496,7,27,2023,12,20,0,685,-1376,760,3588,-146,-857,101,
1497,7,27,2023,12,20,0,695,-1354,788,3666,-157,-904,59,
1498,7,27,2023,12,20,0,705,-983,805,3533,-158,-844,8,
1499,7,27,2023,12,20,0,715,-987,753,3669,-151,-691,-104,
1500,7,27,2023,12,20,0,725,-1102,634,3753,-152,-514,-197,
1501,7,27,2023,12,20,0,735,-875,864,3798,-146,-290,-269,
1502,7,27,2023,12,20,0,745,-931,796,3965,-203,38,-370,
1503,7,27,2023,12,20,0,755,-1009,657,4079,-196,419,-462,
1504,7,27,2023,12,20,0,765,-865,820,3897,-128,838,-523,
1505,7,27,2023,12,20,0,775,-580,718,4031,-102,1355,-634,
1506,7,27,2023,12,20,0,785,-812,557,4211,-29,1996,-728,
1507,7,27,2023,12,20,0,795,-1105,477,4359,108,2713,-764,
1508,7,27,2023,12,20,0,805,-957,502,4361,295,3463,-761,
1509,7,27,2023,12,20,0,815,-1008,635,4412,481,4303,-778,
1510,7,27,2023,12,20,0,825,-1192,851,4199,656,5232,-875,
1511,7,27,2023,12,20,0,835,-1421,1075,3796,717,6307,-1133,
1512,7,27,2023,12,20,0,845,-2053,959,3780,573,7567,-1542,
1513,7,27,2023,12,20,0,855,-2354,967,3865,571,8847,-1834,
1514,7,27,2023,12,20,0,865,-1510,1612,4471,442,10029,-2168,
1515,7,27,2023,12,20,0,875,-1763,1420,4239,-188,10930,-2815,
1516,7,27,2023,12,20,0,885,-2759,1082,4128,-833,11579,-3399,
1517,7,27,2023,12,20,0,895,-3622,1451,4476,-1338,11970,-3957,
1518,7,27,2023,12,20,0,905,-5061,-309,5169,-1624,12033,-4369,
1519,7,27,2023,12,20,0,915,-7231,308,7465,-23,11118,-4045,
1520,7,27,2023,12,20,0,925,-7252,4008,6638,1440,8942,-3416,
1521,7,27,2023,12,20,0,935,-7801,3778,4947,205,7229,-3262,
1522,7,27,2023,12,20,0,945,-13617,3337,5925,-1928,6035,-3140,
1523,7,27,2023,12,20,0,955,-13574,4264,9689,-2883,4214,-2176,
1524,7,27,2023,12,20,0,965,-8209,2801,4291,-3620,1354,-1221,
1525,7,27,2023,12,20,0,975,-6437,351,2010,-4219,1454,-1652,
1526,7,27,2023,12,20,0,985,-6690,-331,3034,-3229,2591,-1886,
1527,7,27,2023,12,20,0,995,-6669,631,4246,-1252,3115,-1376,
1528,7,27,2023,12,20,1,5,-6093,1641,4914,-46,3100,-727,
1529,7,27,2023,12,20,1,15,-5644,1887,5428,-166,2871,-381,
1530,7,27,2023,12,20,1,25,-4986,1583,5625,-874,2371,-230,
1531,7,27,2023,12,20,1,45,-3342,618,5287,-1519,863,-80,
1532,7,27,2023,12,20,1,55,-2572,575,4914,-1179,-16,2,
1533,7,27,2023,12,20,1,65,-1614,821,4198,-843,-881,123,
1534,7,27,2023,12,20,1,75,-801,945,3375,-767,-1527,277,
1535,7,27,2023,12,20,1,85,-296,946,2753,-849,-1938,482,
1536,7,27,2023,12,20,1,95,-8,989,2331,-872,-2221,812,
1537,7,27,2023,12,20,1,105,311,1021,1910,-794,-2440,1272,
1538,7,27,2023,12,20,1,115,638,926,1521,-699,-2547,1790,
1539,7,27,2023,12,20,1,125,860,635,1355,-557,-2553,2273,
1540,7,27,2023,12,20,1,135,897,408,1369,-275,-2591,2668,
1541,7,27,2023,12,20,1,145,822,361,1493,70,-2738,2952,
1542,7,27,2023,12,20,1,155,643,310,1632,330,-3014,3141,
1543,7,27,2023,12,20,1,165,699,43,1436,487,-3413,3201,
1544,7,27,2023,12,20,1,175,823,-309,1109,630,-3782,3088,
1545,7,27,2023,12,20,1,185,683,-508,1091,847,-4040,2832,
1546,7,27,2023,12,20,1,195,311,-463,1312,1116,-4334,2506,
1547,7,27,2023,12,20,1,205,6,-320,1422,1323,-4753,2173,
1548,7,27,2023,12,20,1,215,-182,-283,1273,1447,-5202,1874,
1549,7,27,2023,12,20,1,225,-379,-91,970,1538,-5557,1609,
1550,7,27,2023,12,20,1,235,-650,253,783,1506,-5761,1402,
1551,7,27,2023,12,20,1,245,-961,411,788,1402,-5874,1345,
1552,7,27,2023,12,20,1,255,-1409,274,871,1412,-5995,1457,
1553,7,27,2023,12,20,1,265,-2056,-35,767,1645,-6169,1650,
1554,7,27,2023,12,20,1,275,-2689,-47,370,1909,-6317,1771,
1555,7,27,2023,12,20,1,285,-3207,93,-52,1835,-6287,1766,
1556,7,27,2023,12,20,1,295,-3743,-122,-337,1497,-6061,1719,
1557,7,27,2023,12,20,1,305,-4515,-218,-521,1282,-5733,1745,
1558,7,27,2023,12,20,1,315,-5301,-258,-894,1189,-5336,1926,
1559,7,27,2023,12,20,1,325,-5967,-468,-1374,1077,-4762,2185,
1560,7,27,2023,12,20,1,335,-6366,-618,-1772,925,-3969,2408,
1561,7,27,2023,12,20,1,345,-6495,-582,-1951,677,-3000,2538,
1562,7,27,2023,12,20,1,355,-6384,-407,-1915,363,-1970,2615,
1563,7,27,2023,12,20,1,365,-5896,-335,-1998,105,-995,2722,
1564,7,27,2023,12,20,1,375,-4644,-762,-3147,36,-25,2806,
1565,7,27,2023,12,20,1,385,-4748,102,-2330,158,1348,2686,
1566,7,27,2023,12,20,1,395,-27435,-939,15544,-4409,2190,-191,
1567,7,27,2023,12,20,1,405,-11149,-11335,4691,-4903,-4094,-3485,
1568,7,27,2023,12,20,1,415,3461,3072,4325,1094,-6847,-2825,
1569,7,27,2023,12,20,1,425,4868,-2314,6020,254,-4095,-530,
1570,7,27,2023,12,20,1,435,-353,-926,4664,-333,-2667,46,
1571,7,27,2023,12,20,1,445,-2873,3251,3313,-299,-1425,444,
1572,7,27,2023,12,20,1,455,-1370,1804,3428,-532,-583,169,
1573,7,27,2023,12,20,1,465,-2232,892,3263,-676,-809,-561,
1574,7,27,2023,12,20,1,475,-2987,566,3328,-631,-1231,-608,
1575,7,27,2023,12,20,1,485,-2334,275,3653,-489,-1567,-292,
1576,7,27,2023,12,20,1,495,-1755,-270,3872,-280,-1684,94,
1577,7,27,2023,12,20,1,505,-1205,733,3805,20,-1484,451,
1578,7,27,2023,12,20,1,515,-1300,1232,3808,129,-1050,506,
1579,7,27,2023,12,20,1,525,-1321,1132,3892,108,-665,353,
1580,7,27,2023,12,20,1,535,-1366,799,3859,92,-344,209,
1581,7,27,2023,12,20,1,545,-1308,549,3762,163,-62,201,
1582,7,27,2023,12,20,1,555,-1524,661,3782,277,152,295,
1583,7,27,2023,12,20,1,565,-1653,824,3769,370,284,351,
1584,7,27,2023,12,20,1,575,-1479,902,3717,430,384,317,
1585,7,27,2023,12,20,1,585,-1460,896,3666,461,507,239,
1586,7,27,2023,12,20,1,595,-1495,892,3664,510,642,184,
1587,7,27,2023,12,20,1,605,-1502,913,3718,553,791,158,
1588,7,27,2023,12,20,1,615,-1384,969,3664,588,975,135,
1589,7,27,2023,12,20,1,625,-1314,1030,3632,627,1198,73,
1590,7,27,2023,12,20,1,635,-1605,1023,3674,643,1404,5,
1591,7,27,2023,12,20,1,645,-1887,966,3641,649,1502,-14,
1592,7,27,2023,12,20,1,655,-1743,984,3549,657,1507,-2,
1593,7,27,2023,12,20,1,665,-1806,996,3524,640,1497,-11,
1594,7,27,2023,12,20,1,675,-1826,1097,3493,614,1470,-18,
1595,7,27,2023,12,20,1,685,-1876,1095,3559,599,1466,-59,
1596,7,27,2023,12,20,1,695,-1820,939,3517,597,1501,-89,
1597,7,27,2023,12,20,1,705,-1714,987,3455,595,1543,-105,
1598,7,27,2023,12,20,1,715,-1901,977,3547,585,1604,-112,
1599,7,27,2023,12,20,1,725,-1996,1040,3452,588,1618,-119,
1600,7,27,2023,12,20,1,735,-1951,1026,3414,588,1599,-141,
1601,7,27,2023,12,20,1,745,-1930,995,3383,576,1587,-150,
1602,7,27,2023,12,20,1,755,-2027,1027,3390,556,1554,-147,
1603,7,27,2023,12,20,1,765,-2248,1016,3372,535,1460,-144,
1604,7,27,2023,12,20,1,775,-2242,1004,3276,523,1317,-82,
1605,7,27,2023,12,20,1,785,-2115,1105,3220,500,1171,-25,
1606,7,27,2023,12,20,1,795,-2264,1217,3248,452,983,-41,
1607,7,27,2023,12,20,1,805,-2406,1227,3170,381,733,-94,
1608,7,27,2023,12,20,1,815,-2155,1184,3193,279,500,-121,
1609,7,27,2023,12,20,1,825,-2123,1159,3213,208,326,-158,
1610,7,27,2023,12,20,1,835,-2219,1075,3235,169,213,-150,
1611,7,27,2023,12,20,1,845,-2099,1222,3258,133,113,-137,
1612,7,27,2023,12,20,1,855,-1970,1178,3258,84,56,-169,
1613,7,27,2023,12,20,1,865,-1976,1154,3245,56,52,-234,
1614,7,27,2023,12,20,1,875,-2068,1142,3388,40,106,-292,
1615,7,27,2023,12,20,1,885,-2142,1086,3316,39,188,-336,
1616,7,27,2023,12,20,1,905,-1847,938,3395,206,611,-301,
1617,7,27,2023,12,20,1,915,-1793,1079,3397,313,970,-295,
1618,7,27,2023,12,20,1,925,-1814,1110,3398,362,1366,-324,
1619,7,27,2023,12,20,1,935,-1837,1021,3418,378,1833,-370,
1620,7,27,2023,12,20,1,945,-1903,847,3431,482,2423,-416,
1621,7,27,2023,12,20,1,955,-1951,814,3437,751,3144,-464,
1622,7,27,2023,12,20,1,965,-2077,785,3441,1119,3998,-495,
1623,7,27,2023,12,20,1,975,-2126,1313,3610,1498,4976,-504,
1624,7,27,2023,12,20,1,985,-1993,841,3528,1320,6051,-585,
1625,7,27,2023,12,20,1,995,-2237,880,3500,1275,7129,-593,
1626,7,27,2023,12,20,2,5,-2504,975,3670,1206,8133,-484,
1627,7,27,2023,12,20,2,15,-2655,1106,3840,1247,8915,-282,
1628,7,27,2023,12,20,2,25,-2876,1345,3823,1504,9497,-103,
1629,7,27,2023,12,20,2,35,-3523,1677,4229,1796,10024,-78,
1630,7,27,2023,12,20,2,45,-4138,2818,4067,2103,10379,-376,
1631,7,27,2023,12,20,2,55,-5615,1688,4785,1836,10681,-982,
1632,7,27,2023,12,20,2,65,-5820,2218,4743,2338,10223,-1283,
1633,7,27,2023,12,20,2,75,-7740,2700,5483,1943,9748,-1692,
1634,7,27,2023,12,20,2,85,-10147,822,6987,1721,8476,-2035,
1635,7,27,2023,12,20,2,95,-9164,-2051,-471,3303,7009,-2253,
1636,7,27,2023,12,20,2,105,-11333,-1929,-1281,6215,7215,-3298,
1637,7,27,2023,12,20,2,115,-16705,2679,-307,6609,7331,-5951,
1638,7,27,2023,12,20,2,125,-18015,5536,7048,2916,7467,-8259,
1639,7,27,2023,12,20,2,135,-14932,4254,6327,-694,4090,-8287,
1640,7,27,2023,12,20,2,145,-11909,3309,4959,-2723,2125,-7730,
1641,7,27,2023,12,20,2,155,-10040,2694,4484,-3646,1517,-7209,
1642,7,27,2023,12,20,2,165,-8340,2585,4553,-3662,1349,-6586,
1643,7,27,2023,12,20,2,175,-7035,2952,4995,-3276,1249,-5784,
1644,7,27,2023,12,20,2,185,-5804,3624,5414,-3022,918,-4848,
1645,7,27,2023,12,20,2,195,-4030,4057,5367,-3299,338,-3895,
1646,7,27,2023,12,20,2,205,-2391,4062,5331,-4094,-200,-3069,
1647,7,27,2023,12,20,2,215,-1468,3804,5520,-4905,-811,-2271,
1648,7,27,2023,12,20,2,225,-576,3484,5331,-5332,-1813,-1357,
1649,7,27,2023,12,20,2,235,937,3078,4475,-5426,-3003,-481,
1650,7,27,2023,12,20,2,245,2278,2396,3497,-5287,-3866,110,
1651,7,27,2023,12,20,2,255,3149,1631,2871,-4646,-4334,400,
1652,7,27,2023,12,20,2,265,3445,1222,2785,-3445,-4670,467,
1653,7,27,2023,12,20,2,275,3563,1498,2860,-2026,-5125,424,
1654,7,27,2023,12,20,2,285,3681,1981,2755,-1006,-5672,276,
1655,7,27,2023,12,20,2,295,3511,2143,2639,-518,-6225,91,
1656,7,27,2023,12,20,2,305,3183,2125,2525,-157,-6809,25,
1657,7,27,2023,12,20,2,315,2884,2279,2355,300,-7424,161,
1658,7,27,2023,12,20,2,325,2448,2558,2329,724,-7977,494,
1659,7,27,2023,12,20,2,335,1887,2656,2362,998,-8474,982,
1660,7,27,2023,12,20,2,345,1436,2467,2266,1198,-8891,1530,
1661,7,27,2023,12,20,2,355,990,2102,2139,1468,-9175,2046,
1662,7,27,2023,12,20,2,365,538,1693,2056,1882,-9358,2520,
1663,7,27,2023,12,20,2,375,22,1291,2183,2315,-9474,2888,
1664,7,27,2023,12,20,2,385,-722,991,2644,2642,-9582,3071,
1665,7,27,2023,12,20,2,395,-1487,645,3049,2795,-9769,3085,
1666,7,27,2023,12,20,2,405,-1988,194,3109,2846,-10024,2939,
1667,7,27,2023,12,20,2,415,-2212,-321,2929,2942,-10229,2655,
1668,7,27,2023,12,20,2,425,-2498,-779,2871,3188,-10281,2267,
1669,7,27,2023,12,20,2,435,-2926,-755,2927,3514,-10237,1807,
1670,7,27,2023,12,20,2,445,-3250,-320,3000,3646,-10061,1397,
1671,7,27,2023,12,20,2,455,-3459,167,2981,3459,-9712,1177,
1672,7,27,2023,12,20,2,465,-3697,322,2993,3172,-9210,1274,
1673,7,27,2023,12,20,2,475,-4290,1,2929,3086,-8647,1697,
1674,7,27,2023,12,20,2,485,-5039,-126,2146,3205,-8081,2221,
1675,7,27,2023,12,20,2,495,-5395,12,241,3149,-7250,2686,
1676,7,27,2023,12,20,2,505,-5592,331,-1037,2611,-5651,3104,
1677,7,27,2023,12,20,2,515,-6547,666,-479,1866,-3591,3706,
1678,7,27,2023,12,20,2,525,-7979,586,679,1343,-1979,4712,
1679,7,27,2023,12,20,2,535,-9472,-159,934,1137,-1047,5821,
1680,7,27,2023,12,20,2,545,-10881,-612,568,826,-441,6363,
1681,7,27,2023,12,20,2,555,-11352,-757,-11,-291,-38,5978,
1682,7,27,2023,12,20,2,565,-10524,-1731,-756,-2124,380,4751,
1683,7,27,2023,12,20,2,575,-9423,-3143,-994,-3348,911,3073,
1684,7,27,2023,12,20,2,585,-8380,-3398,-714,-3026,1400,1453,
1685,7,27,2023,12,20,2,595,-7575,-2236,-188,-1892,1743,64,
1686,7,27,2023,12,20,2,605,-6207,-1968,-281,-997,1986,-1098,
1687,7,27,2023,12,20,2,615,-901,1948,1359,-526,2984,-2521,
1688,7,27,2023,12,20,2,625,-2906,8478,9731,-1539,3808,-3280,
1689,7,27,2023,12,20,2,635,-6360,6942,9986,-2043,4292,-2433,
1690,7,27,2023,12,20,2,645,-8555,975,7456,-1852,4180,-829,
1691,7,27,2023,12,20,2,655,-5634,-3962,7289,-1684,2489,43,
1692,7,27,2023,12,20,2,665,-267,-4489,4200,-915,655,-355,
1693,7,27,2023,12,20,2,675,2049,-636,1558,328,548,-929,
1694,7,27,2023,12,20,2,685,1244,3041,1082,1207,1475,-640,
1695,7,27,2023,12,20,2,695,-1757,3646,3199,1082,2442,-153,
1696,7,27,2023,12,20,2,705,-8340,3026,8238,-347,1826,-397,
1697,7,27,2023,12,20,2,715,-2053,890,2597,-1334,-239,-864,
1698,7,27,2023,12,20,2,725,-888,-1195,4757,-1153,70,-519,
1699,7,27,2023,12,20,2,735,-2901,-1171,4939,-130,233,-77,
1700,7,27,2023,12,20,2,745,-1976,1575,3532,439,-179,151,
1701,7,27,2023,12,20,2,765,-1691,821,3701,-210,-6,-49,
1702,7,27,2023,12,20,2,775,-1681,918,3730,-260,7,-77,
1703,7,27,2023,12,20,2,785,-1531,941,3629,-284,77,-89,
1704,7,27,2023,12,20,2,795,-1444,973,3463,-346,179,-131,
1705,7,27,2023,12,20,2,805,-1251,984,3413,-488,285,-197,
1706,7,27,2023,12,20,2,815,-1481,852,3675,-608,456,-257,
1707,7,27,2023,12,20,2,825,-1837,672,3861,-595,540,-258,
1708,7,27,2023,12,20,2,835,-2023,702,3898,-501,461,-214,
1709,7,27,2023,12,20,2,845,-1982,729,3831,-382,291,-152,
1710,7,27,2023,12,20,2,855,-2010,591,4005,-250,165,-83,
1711,7,27,2023,12,20,2,865,-1975,559,3909,-55,35,-9,
1712,7,27,2023,12,20,2,875,-1686,756,3711,75,-64,56,
1713,7,27,2023,12,20,2,885,-1720,767,3738,87,-77,62,
1714,7,27,2023,12,20,2,895,-1798,612,3843,112,-104,69,
1715,7,27,2023,12,20,2,905,-1758,722,3770,188,-185,99,
1716,7,27,2023,12,20,2,915,-1677,743,3689,225,-244,118,
1717,7,27,2023,12,20,2,925,-1593,763,3653,227,-246,116,
1718,7,27,2023,12,20,2,935,-1628,776,3672,222,-219,110,
1719,7,27,2023,12,20,2,945,-1589,792,3655,219,-192,106,
1720,7,27,2023,12,20,2,955,-1491,903,3569,197,-165,93,
1721,7,27,2023,12,20,2,965,-1575,825,3653,139,-99,60,
1722,7,27,2023,12,20,2,975,-1601,792,3679,141,-54,52,
1723,7,27,2023,12,20,2,985,-1471,860,3561,158,-16,55,
1724,7,27,2023,12,20,2,995,-1405,894,3516,130,52,25,
1725,7,27,2023,12,20,3,5,-1389,843,3499,74,140,-9,
1726,7,27,2023,12,20,3,15,-1259,915,3424,12,248,-51,
1727,7,27,2023,12,20,3,25,-1420,951,3496,-103,394,-112,
1728,7,27,2023,12,20,3,35,-1750,730,3709,-198,469,-151,
1729,7,27,2023,12,20,3,45,-1717,719,3701,-145,431,-117,
1730,7,27,2023,12,20,3,55,-1680,982,3634,-88,399,-96,
1731,7,27,2023,12,20,3,65,-1896,842,3749,-115,389,-103,
1732,7,27,2023,12,20,3,75,-1885,743,3786,-94,286,-81,
1733,7,27,2023,12,20,3,85,-1767,837,3689,-58,179,-55,
1734,7,27,2023,12,20,3,95,-1823,734,3738,-61,121,-38,
1735,7,27,2023,12,20,3,105,-1683,705,3667,-22,53,-10,
1736,7,27,2023,12,20,3,115,-1538,797,3591,-8,38,-2,
1737,7,27,2023,12,20,3,125,-1599,819,3628,-33,90,-25,
1738,7,27,2023,12,20,3,135,-1589,879,3576,-72,119,-52,
1739,7,27,2023,12,20,3,145,-1616,947,3576,-127,130,-72,
1740,7,27,2023,12,20,3,155,-1783,833,3635,-194,129,-102,
1741,7,27,2023,12,20,3,165,-1891,690,3708,-212,56,-90,
1742,7,27,2023,12,20,3,175,-1676,768,3613,-175,-44,-66,
1743,7,27,2023,12,20,3,185,-1558,805,3605,-182,-44,-78,
1744,7,27,2023,12,20,3,195,-1552,773,3619,-204,7,-96,
1745,7,27,2023,12,20,3,205,-1612,834,3607,-220,55,-111,
1746,7,27,2023,12,20,3,215,-1801,806,3650,-252,67,-123,
1747,7,27,2023,12,20,3,225,-1697,834,3628,-261,9,-124,
1748,7,27,2023,12,20,3,235,-1657,931,3642,-304,-6,-142,
1749,7,27,2023,12,20,3,245,-1760,764,3715,-346,19,-166,
1750,7,27,2023,12,20,3,255,-1812,714,3779,-321,14,-173,
1751,7,27,2023,12,20,3,265,-1819,610,3755,-249,-17,-156,
1752,7,27,2023,12,20,3,275,-1668,684,3688,-192,-26,-134,
1753,7,27,2023,12,20,3,285,-1666,709,3664,-167,8,-132,
1754,7,27,2023,12,20,3,295,-1747,534,3669,-152,16,-134,
1755,7,27,2023,12,20,3,305,-1786,485,3688,-106,-12,-103,
1756,7,27,2023,12,20,3,315,-1725,552,3682,-59,-30,-66,
1757,7,27,2023,12,20,3,325,-1677,597,3674,-14,-9,-40,
1758,7,27,2023,12,20,3,335,-1730,593,3678,21,20,-22,
1759,7,27,2023,12,20,3,345,-1747,597,3699,56,16,5,
1760,7,27,2023,12,20,3,355,-1744,779,3705,75,29,27,
1761,7,27,2023,12,20,3,365,-1776,650,3724,62,37,34,
1762,7,27,2023,12,20,3,375,-1720,892,3725,56,58,50,
1763,7,27,2023,12,20,3,385,-1714,859,3723,33,136,32,
1764,7,27,2023,12,20,3,395,-1782,778,3741,23,214,13,
1765,7,27,2023,12,20,3,405,-1815,564,3734,66,212,35,
1766,7,27,2023,12,20,3,415,-1802,661,3664,118,163,71,
1767,7,27,2023,12,20,3,425,-1796,667,3639,144,112,100,
1768,7,27,2023,12,20,3,435,-1830,612,3642,167,60,110,
1769,7,27,2023,12,20,3,445,-1712,604,3601,214,1,111,
1770,7,27,2023,12,20,3,455,-1633,733,3547,224,-26,113,
1771,7,27,2023,12,20,3,465,-1598,732,3568,203,-24,108,
1772,7,27,2023,12,20,3,475,-1572,749,3533,170,-22,79,
1773,7,27,2023,12,20,3,485,-1548,843,3540,130,-4,45,
1774,7,27,2023,12,20,3,495,-1650,748,3615,75,31,19,
1775,7,27,2023,12,20,3,505,-1741,711,3675,63,34,13,
1776,7,27,2023,12,20,3,515,-1705,765,3659,71,23,15,
1777,7,27,2023,12,20,3,525,-1646,830,3631,52,33,7,
1778,7,27,2023,12,20,3,535,-1687,806,3635,14,56,-13,
1779,7,27,2023,12,20,3,545,-1715,760,3629,-10,66,-30,
1780,7,27,2023,12,20,3,555,-1656,772,3569,-27,58,-46,
1781,7,27,2023,12,20,3,565,-1609,857,3573,-52,80,-71,
1782,7,27,2023,12,20,3,575,-1670,813,3629,-100,122,-105,
1783,7,27,2023,12,20,3,585,-1723,704,3680,-131,144,-124,
1784,7,27,2023,12,20,3,595,-1738,692,3683,-126,149,-118,
1785,7,27,2023,12,20,3,605,-1736,664,3660,-108,155,-100,
1786,7,27,2023,12,20,3,625,-1605,725,3593,-67,193,-93,
1787,7,27,2023,12,20,3,635,-1738,756,3623,-90,224,-96,
1788,7,27,2023,12,20,3,645,-1837,728,3644,-108,208,-98,
1789,7,27,2023,12,20,3,655,-1836,760,3637,-114,151,-92,
1790,7,27,2023,12,20,3,665,-1825,731,3633,-130,99,-90,
1791,7,27,2023,12,20,3,675,-1796,693,3624,-141,50,-88,
1792,7,27,2023,12,20,3,685,-1769,664,3624,-142,15,-81,
1793,7,27,2023,12,20,3,695,-1730,691,3621,-141,-6,-75,
1794,7,27,2023,12,20,3,705,-1759,689,3637,-146,-5,-70,
1795,7,27,2023,12,20,3,715,-1814,641,3672,-140,-15,-59,
1796,7,27,2023,12,20,3,725,-1814,643,3654,-122,-40,-42,
1797,7,27,2023,12,20,3,735,-1833,620,3668,-100,-63,-22,
1798,7,27,2023,12,20,3,745,-1832,590,3692,-66,-97,2,
1799,7,27,2023,12,20,3,755,-1787,631,3667,-29,-134,28,
1800,7,27,2023,12,20,3,765,-1762,690,3662,-12,-151,36,
1801,7,27,2023,12,20,3,775,-1792,709,3680,-12,-152,40,
1802,7,27,2023,12,20,3,785,-1796,666,3684,-5,-161,51,
1803,7,27,2023,12,20,3,795,-1772,648,3675,7,-173,59,
1804,7,27,2023,12,20,3,805,-1744,630,3656,28,-183,67,
1805,7,27,2023,12,20,3,815,-1768,613,3659,50,-194,73,
1806,7,27,2023,12,20,3,825,-1752,600,3655,83,-209,86,
1807,7,27,2023,12,20,3,835,-1715,646,3655,119,-218,101,
1808,7,27,2023,12,20,3,845,-1707,668,3645,146,-211,113,
1809,7,27,2023,12,20,3,855,-1657,709,3633,162,-199,111,
1810,7,27,2023,12,20,3,865,-1658,726,3641,164,-169,105,
1811,7,27,2023,12,20,3,875,-1706,687,3648,159,-147,106,
1812,7,27,2023,12,20,3,885,-1608,713,3587,166,-141,104,
1813,7,27,2023,12,20,3,895,-1478,859,3536,148,-97,86,
1814,7,27,2023,12,20,3,905,-1625,840,3621,80,-17,48,
1815,7,27,2023,12,20,3,915,-1772,693,3682,32,8,29,
1816,7,27,2023,12,20,3,925,-1732,720,3655,38,-21,33,
1817,7,27,2023,12,20,3,935,-1713,741,3644,31,-40,32,
1818,7,27,2023,12,20,3,945,-1735,685,3663,22,-52,28,
1819,7,27,2023,12,20,3,955,-1735,678,3674,31,-76,33,
1820,7,27,2023,12,20,3,965,-1711,721,3671,46,-95,46,
1821,7,27,2023,12,20,3,975,-1661,750,3653,56,-93,49,
1822,7,27,2023,12,20,3,985,-1657,734,3658,50,-75,45,
1823,7,27,2023,12,20,3,995,-1679,717,3662,45,-57,37,
1824,7,27,2023,12,20,4,5,-1694,714,3662,52,-52,38,
1825,7,27,2023,12,20,4,15,-1689,708,3657,66,-49,46,
1826,7,27,2023,12,20,4,25,-1677,733,3641,74,-51,51,
1827,7,27,2023,12,20,4,35,-1670,762,3647,69,-51,50,
1828,7,27,2023,12,20,4,45,-1657,770,3652,59,-48,38,
1829,7,27,2023,12,20,4,55,-1669,749,3659,44,-37,33,
1830,7,27,2023,12,20,4,65,-1667,758,3645,30,-32,28,
1831,7,27,2023,12,20,4,75,-1681,755,3656,19,-35,26,
1832,7,27,2023,12,20,4,85,-1676,770,3656,11,-42,20,
1833,7,27,2023,12,20,4,95,-1670,773,3661,-2,-40,16,
1834,7,27,2023,12,20,4,105,-1678,755,3676,-18,-43,12,
1835,7,27,2023,12,20,4,115,-1715,729,3699,-30,-47,11,
1836,7,27,2023,12,20,4,125,-1673,750,3648,-34,-64,19,
1837,7,27,2023,12,20,4,135,-1668,754,3650,-38,-67,22,
1838,7,27,2023,12,20,4,145,-1687,713,3673,-39,-65,21,
1839,7,27,2023,12,20,4,155,-1710,712,3717,-30,-79,20,
1840,7,27,2023,12,20,4,165,-1836,677,3855,-4,-103,39,
1841,7,27,2023,12,20,4,175,-1871,683,3848,45,-182,69,
1842,7,27,2023,12,20,4,185,-1678,777,3636,52,-255,68,
1843,7,27,2023,12,20,4,195,-1640,744,3611,35,-258,58,
1844,7,27,2023,12,20,4,205,-1619,666,3662,39,-264,59,
1845,7,27,2023,12,20,4,215,-1546,709,3632,56,-260,61,
1846,7,27,2023,12,20,4,225,-1552,804,3623,62,-216,58,
1847,7,27,2023,12,20,4,235,-1649,764,3671,44,-177,54,
1848,7,27,2023,12,20,4,245,-1618,742,3651,48,-165,51,
1849,7,27,2023,12,20,4,255,-1561,797,3618,46,-144,40,
1850,7,27,2023,12,20,4,265,-1574,777,3635,32,-110,32,
1851,7,27,2023,12,20,4,275,-1578,743,3637,22,-84,28,
1852,7,27,2023,12,20,4,285,-1585,779,3659,26,-60,26,
1853,7,27,2023,12,20,4,295,-1634,760,3688,28,-38,22,
1854,7,27,2023,12,20,4,305,-1623,754,3691,31,-27,19,
1855,7,27,2023,12,20,4,315,-1604,772,3662,41,-19,18,
1856,7,27,2023,12,20,4,325,-1585,736,3653,45,-2,18,
1857,7,27,2023,12,20,4,335,-1599,712,3655,52,11,16,
1858,7,27,2023,12,20,4,345,-1594,736,3652,63,18,24,
1859,7,27,2023,12,20,4,355,-1577,752,3645,68,28,24,
1860,7,27,2023,12,20,4,365,-1618,769,3675,71,44,19,
1861,7,27,2023,12,20,4,375,-1644,755,3687,79,51,26,
1862,7,27,2023,12,20,4,385,-1620,776,3667,83,45,27,
1863,7,27,2023,12,20,4,395,-1601,784,3666,81,52,21,
1864,7,27,2023,12,20,4,405,-1610,764,3671,76,68,22,
1865,7,27,2023,12,20,4,415,-1638,738,3682,83,71,28,
1866,7,27,2023,12,20,4,425,-1634,750,3674,92,60,30,
1867,7,27,2023,12,20,4,435,-1614,785,3667,95,52,37,
1868,7,27,2023,12,20,4,445,-1617,807,3663,87,48,37,
1869,7,27,2023,12,20,4,455,-1625,808,3659,71,45,32,
1870,7,27,2023,12,20,4,465,-1614,794,3665,60,42,29,
1871,7,27,2023,12,20,4,485,-1679,758,3711,49,34,27,
1872,7,27,2023,12,20,4,495,-1660,769,3693,67,16,34,
1873,7,27,2023,12,20,4,505,-1636,794,3679,79,5,43,
1874,7,27,2023,12,20,4,515,-1676,785,3719,81,1,44,
1875,7,27,2023,12,20,4,525,-1667,779,3698,93,-18,47,
1876,7,27,2023,12,20,4,535,-1599,822,3650,97,-28,48,
1877,7,27,2023,12,20,4,545,-1612,819,3646,87,-17,48,
1878,7,27,2023,12,20,4,555,-1636,806,3662,75,-11,39,
1879,7,27,2023,12,20,4,565,-1615,829,3657,70,-12,35,
1880,7,27,2023,12,20,4,575,-1603,846,3652,58,-6,32,
1881,7,27,2023,12,20,4,585,-1592,844,3646,42,8,21,
1882,7,27,2023,12,20,4,595,-1597,815,3657,18,25,11,
1883,7,27,2023,12,20,4,605,-1609,805,3643,8,34,4,
1884,7,27,2023,12,20,4,615,-1621,798,3650,1,40,-1,
1885,7,27,2023,12,20,4,625,-1623,801,3658,1,40,-4,
1886,7,27,2023,12,20,4,635,-1623,825,3651,-2,45,-4,
1887,7,27,2023,12,20,4,645,-1627,848,3659,-12,50,-11,
1888,7,27,2023,12,20,4,655,-1638,815,3674,-19,52,-13,
1889,7,27,2023,12,20,4,665,-1628,794,3662,-18,53,-14,
1890,7,27,2023,12,20,4,675,-1644,814,3665,-21,45,-12,
1891,7,27,2023,12,20,4,685,-1654,794,3669,-22,34,-9,
1892,7,27,2023,12,20,4,695,-1662,809,3680,-22,26,-8,
1893,7,27,2023,12,20,4,705,-1652,817,3678,-23,15,-7,
1894,7,27,2023,12,20,4,715,-1627,812,3664,-24,11,-8,
1895,7,27,2023,12,20,4,725,-1628,819,3665,-27,10,-9,
1896,7,27,2023,12,20,4,735,-1637,806,3672,-31,12,-10,
1897,7,27,2023,12,20,4,745,-1630,788,3666,-34,15,-13,
1898,7,27,2023,12,20,4,755,-1647,788,3665,-29,21,-13,
1899,7,27,2023,12,20,4,765,-1654,791,3667,-24,20,-9,
1900,7,27,2023,12,20,4,775,-1640,798,3669,-19,13,-6,
1901,7,27,2023,12,20,4,785,-1625,807,3663,-21,11,-5,
1902,7,27,2023,12,20,4,795,-1633,811,3669,-26,19,-7,
1903,7,27,2023,12,20,4,805,-1636,801,3664,-32,22,-14,
1904,7,27,2023,12,20,4,815,-1649,800,3664,-33,21,-15,
1905,7,27,2023,12,20,4,825,-1637,810,3663,-34,20,-17,
1906,7,27,2023,12,20,4,835,-1649,792,3669,-37,22,-16,
1907,7,27,2023,12,20,4,845,-1654,764,3673,-39,22,-17,
1908,7,27,2023,12,20,4,855,-1659,759,3660,-37,7,-14,
1909,7,27,2023,12,20,4,865,-1639,788,3661,-19,5,-10,
1910,7,27,2023,12,20,4,875,-1631,797,3675,-11,16,-8,
1911,7,27,2023,12,20,4,885,-1663,784,3676,-7,22,-6,
1912,7,27,2023,12,20,4,895,-1655,769,3680,0,17,-3,
1913,7,27,2023,12,20,4,905,-1650,774,3688,11,15,0,
1914,7,27,2023,12,20,4,915,-1654,790,3667,11,8,-2,
1915,7,27,2023,12,20,4,925,-1667,800,3679,15,4,-6,
1916,7,27,2023,12,20,4,935,-1681,788,3675,24,-7,-7,
1917,7,27,2023,12,20,4,945,-1635,788,3657,22,-8,-14,
1918,7,27,2023,12,20,4,955,-1629,787,3658,16,5,-13,
1919,7,27,2023,12,20,4,965,-1651,785,3659,11,9,-8,
1920,7,27,2023,12,20,4,975,-1633,787,3660,14,2,-6,
1921,7,27,2023,12,20,4,985,-1609,795,3649,17,2,-6,
1922,7,27,2023,12,20,4,995,-1631,804,3657,14,7,0,
1923,7,27,2023,12,20,5,5,-1634,804,3656,11,7,4,
1924,7,27,2023,12,20,5,15,-1636,811,3661,3,6,0,
1925,7,27,2023,12,20,5,25,-1652,803,3662,-1,6,0,
1926,7,27,2023,12,20,5,35,-1643,783,3659,2,11,0,
1927,7,27,2023,12,20,5,45,-1635,795,3656,-2,8,-1,
1928,7,27,2023,12,20,5,55,-1629,797,3657,0,9,0,
1929,7,27,2023,12,20,5,65,-1630,796,3663,-2,15,-1,
1930,7,27,2023,12,20,5,75,-1632,806,3654,-5,20,1,
1931,7,27,2023,12,20,5,85,-1641,798,3665,-6,22,0,
1932,7,27,2023,12,20,5,95,-1635,788,3665,-12,24,1,
1933,7,27,2023,12,20,5,105,-1645,787,3668,-15,25,-4,
1934,7,27,2023,12,20,5,115,-1651,766,3667,-13,20,-1,
1935,7,27,2023,12,20,5,125,-1646,770,3667,-5,13,3,
1936,7,27,2023,12,20,5,135,-1636,808,3658,1,6,8,
1937,7,27,2023,12,20,5,145,-1646,812,3663,-1,8,5,
1938,7,27,2023,12,20,5,155,-1659,793,3679,-3,10,3,
1939,7,27,2023,12,20,5,165,-1657,804,3665,-6,6,5,
1940,7,27,2023,12,20,5,175,-1634,797,3654,-4,3,4,
1941,7,27,2023,12,20,5,185,-1627,783,3656,-9,8,-1,
1942,7,27,2023,12,20,5,195,-1610,794,3634,-12,14,-6,
1943,7,27,2023,12,20,5,205,-1594,817,3641,-14,29,-9,
1944,7,27,2023,12,20,5,215,-1641,792,3660,-21,49,-18,
1945,7,27,2023,12,20,5,225,-1683,779,3681,-20,48,-17,
1946,7,27,2023,12,20,5,235,-1668,796,3672,-15,41,-12,
1947,7,27,2023,12,20,5,245,-1658,786,3675,-12,34,-8,
1948,7,27,2023,12,20,5,255,-1666,767,3679,-9,27,-4,
1949,7,27,2023,12,20,5,265,-1650,800,3655,-4,21,-6,
1950,7,27,2023,12,20,5,275,-1647,804,3653,-8,21,-5,
1951,7,27,2023,12,20,5,285,-1644,796,3663,-13,23,-8,
1952,7,27,2023,12,20,5,295,-1648,801,3658,-21,21,-9,
1953,7,27,2023,12,20,5,305,-1655,775,3664,-23,23,-10,
1954,7,27,2023,12,20,5,315,-1654,773,3647,-20,17,-10,
1955,7,27,2023,12,20,5,325,-1627,799,3641,-19,15,-10,
1956,7,27,2023,12,20,5,345,-1657,784,3669,-30,35,-23,
1957,7,27,2023,12,20,5,355,-1681,762,3676,-25,39,-17,
1958,7,27,2023,12,20,5,365,-1675,764,3671,-15,28,-12,
1959,7,27,2023,12,20,5,375,-1658,773,3663,-8,17,-8,
1960,7,27,2023,12,20,5,385,-1669,776,3667,-8,13,-6,
1961,7,27,2023,12,20,5,395,-1677,778,3679,-7,12,-6,
1962,7,27,2023,12,20,5,405,-1666,779,3661,-9,6,-6,
1963,7,27,2023,12,20,5,415,-1659,800,3656,-8,5,-1,
1964,7,27,2023,12,20,5,425,-1658,781,3670,-9,5,-2,
1965,7,27,2023,12,20,5,435,-1654,767,3659,-3,1,1,
1966,7,27,2023,12,20,5,445,-1655,787,3665,3,1,3,
1967,7,27,2023,12,20,5,455,-1658,784,3665,4,2,0,
1968,7,27,2023,12,20,5,465,-1664,777,3673,3,2,2,
1969,7,27,2023,12,20,5,475,-1660,776,3663,5,-1,5,
1970,7,27,2023,12,20,5,485,-1658,776,3667,8,-6,8,
1971,7,27,2023,12,20,5,495,-1656,777,3668,11,-12,8,
1972,7,27,2023,12,20,5,505,-1654,782,3666,13,-12,11,
1973,7,27,2023,12,20,5,515,-1657,781,3658,16,-11,9,
1974,7,27,2023,12,20,5,525,-1669,787,3661,10,-8,8,
1975,7,27,2023,12,20,5,535,-1656,784,3651,13,-14,12,
1976,7,27,2023,12,20,5,545,-1642,781,3653,12,-14,9,
1977,7,27,2023,12,20,5,555,-1638,795,3651,7,-10,8,
1978,7,27,2023,12,20,5,565,-1658,794,3661,0,-6,6,
1979,7,27,2023,12,20,5,575,-1670,774,3667,0,-11,5,
1980,7,27,2023,12,20,5,585,-1651,788,3663,-1,-12,3,
1981,7,27,2023,12,20,5,595,-1625,793,3647,1,-8,4,
1982,7,27,2023,12,20,5,605,-1625,785,3638,-2,3,1,
1983,7,27,2023,12,20,5,615,-1632,783,3635,0,11,2,
1984,7,27,2023,12,20,5,625,-1611,834,3625,-1,20,-4,
1985,7,27,2023,12,20,5,635,-1649,799,3652,-24,38,-15,
1986,7,27,2023,12,20,5,645,-1683,763,3685,-29,38,-12,
1987,7,27,2023,12,20,5,655,-1667,788,3663,-22,24,-10,
1988,7,27,2023,12,20,5,665,-1663,774,3667,-24,19,-11,
1989,7,27,2023,12,20,5,675,-1665,778,3661,-27,15,-12,
1990,7,27,2023,12,20,5,685,-1677,774,3668,-28,16,-10,
1991,7,27,2023,12,20,5,695,-1663,780,3669,-24,10,-12,
1992,7,27,2023,12,20,5,705,-1693,745,3692,-11,6,-7,
1993,7,27,2023,12,20,5,715,-1682,768,3681,14,-11,7,
1994,7,27,2023,12,20,5,725,-1681,776,3696,32,-19,11,
1995,7,27,2023,12,20,5,735,-1675,763,3681,52,-21,7,
1996,7,27,2023,12,20,5,745,-1629,779,3640,47,-19,8,
1997,7,27,2023,12,20,5,755,-1629,797,3630,33,-20,11,
1998,7,27,2023,12,20,5,765,-1666,770,3663,24,-19,12,
1999,7,27,2023,12,20,5,775,-1663,784,3651,21,-25,17,
2000,7,27,2023,12,20,5,785,-1631,811,3659,22,-29,16,
2001,7,27,2023,12,20,5,795,-1657,778,3679,10,-26,15,
2002,7,27,2023,12,20,5,805,-1653,786,3669,10,-23,16,
2003,7,27,2023,12,20,5,815,-1648,796,3670,10,-21,12,
2004,7,27,2023,12,20,5,825,-1675,780,3676,3,-21,11,
2005,7,27,2023,12,20,5,835,-1680,763,3676,1,-36,18,
2006,7,27,2023,12,20,5,845,-1652,777,3655,3,-49,21,
2007,7,27,2023,12,20,5,855,-1636,784,3653,4,-56,23,
2008,7,27,2023,12,20,5,865,-1636,776,3654,3,-55,23,
2009,7,27,2023,12,20,5,875,-1642,802,3669,6,-53,24,
2010,7,27,2023,12,20,5,885,-1677,768,3697,13,-49,29,
2011,7,27,2023,12,20,5,895,-1656,781,3673,26,-62,32,
2012,7,27,2023,12,20,5,905,-1630,806,3671,26,-63,31,
2013,7,27,2023,12,20,5,915,-1720,784,3780,22,-62,31,
2014,7,27,2023,12,20,5,925,-1785,710,3778,34,-114,49,
2015,7,27,2023,12,20,5,935,-1617,828,3611,51,-184,65,
2016,7,27,2023,12,20,5,945,-1526,853,3570,45,-186,56,
2017,7,27,2023,12,20,5,955,-1581,765,3633,15,-149,42,
2018,7,27,2023,12,20,5,965,-1594,809,3649,14,-129,36,
2019,7,27,2023,12,20,5,975,-1580,868,3639,14,-106,32,
2020,7,27,2023,12,20,5,985,-1653,795,3728,3,-80,25,
2021,7,27,2023,12,20,5,995,-1714,757,3730,8,-109,30,
2022,7,27,2023,12,20,6,5,-1623,810,3650,20,-164,37,
2023,7,27,2023,12,20,6,15,-1532,813,3603,0,-169,37,
2024,7,27,2023,12,20,6,25,-1548,798,3644,-13,-136,27,
2025,7,27,2023,12,20,6,35,-1580,816,3648,-24,-110,18,
2026,7,27,2023,12,20,6,45,-1573,812,3645,-29,-87,12,
2027,7,27,2023,12,20,6,55,-1556,812,3653,-35,-62,3,
2028,7,27,2023,12,20,6,65,-1547,823,3653,-45,-32,-4,
2029,7,27,2023,12,20,6,75,-1552,809,3656,-51,10,-16,
2030,7,27,2023,12,20,6,85,-1582,784,3652,-55,37,-20,
2031,7,27,2023,12,20,6,95,-1542,793,3619,-51,51,-20,
2032,7,27,2023,12,20,6,105,-1545,836,3627,-59,80,-37,
2033,7,27,2023,12,20,6,115,-1362,788,3404,-65,104,-52,
2034,7,27,2023,12,20,6,125,-947,1063,3284,-106,223,-116,
2035,7,27,2023,12,20,6,135,-1527,1000,3636,-263,439,-213,
2036,7,27,2023,12,20,6,145,-1965,533,3878,-298,487,-225,
2037,7,27,2023,12,20,6,155,-1748,697,3749,-197,384,-170,
2038,7,27,2023,12,20,6,165,-1599,834,3622,-171,334,-144,
2039,7,27,2023,12,20,6,175,-1653,734,3695,-191,344,-156,
2040,7,27,2023,12,20,6,185,-1755,743,3736,-199,333,-161,
2041,7,27,2023,12,20,6,205,-1754,624,3701,-165,235,-125,
2042,7,27,2023,12,20,6,215,-1441,785,3476,-122,204,-119,
2043,7,27,2023,12,20,6,225,-1479,943,3581,-168,292,-156,
2044,7,27,2023,12,20,6,235,-1833,663,3788,-231,376,-178,
2045,7,27,2023,12,20,6,245,-1857,614,3770,-189,331,-153,
2046,7,27,2023,12,20,6,255,-1787,707,3714,-145,271,-125,
2047,7,27,2023,12,20,6,265,-1832,653,3722,-134,230,-114,
2048,7,27,2023,12,20,6,275,-1885,611,3742,-104,179,-91,
2049,7,27,2023,12,20,6,285,-1754,688,3673,-61,118,-60,
2050,7,27,2023,12,20,6,295,-1763,687,3711,-60,89,-52,
2051,7,27,2023,12,20,6,305,-1813,614,3713,-32,49,-35,
2052,7,27,2023,12,20,6,315,-1761,672,3680,2,4,-7,
2053,7,27,2023,12,20,6,325,-1755,684,3678,2,-15,4,
2054,7,27,2023,12,20,6,335,-1775,663,3677,3,-24,6,
2055,7,27,2023,12,20,6,345,-1750,686,3669,16,-42,14,
2056,7,27,2023,12,20,6,355,-1745,671,3665,31,-60,24,
2057,7,27,2023,12,20,6,365,-1729,698,3652,45,-74,33,
2058,7,27,2023,12,20,6,375,-1700,700,3655,28,-82,37,
2059,7,27,2023,12,20,6,385,-1737,681,3676,31,-87,35,
2060,7,27,2023,12,20,6,395,-1760,678,3667,34,-101,46,
2061,7,27,2023,12,20,6,405,-1766,657,3692,44,-125,60,
2062,7,27,2023,12,20,6,415,-1815,610,3740,72,-165,88,
2063,7,27,2023,12,20,6,425,-1793,722,3708,112,-217,128,
2064,7,27,2023,12,20,6,435,-1761,698,3699,128,-246,156,
2065,7,27,2023,12,20,6,445,-1710,676,3675,148,-275,161,
2066,7,27,2023,12,20,6,455,-1686,701,3659,161,-295,166,
2067,7,27,2023,12,20,6,465,-1673,643,3657,169,-308,173,
2068,7,27,2023,12,20,6,475,-1661,686,3660,191,-322,184,
2069,7,27,2023,12,20,6,485,-1669,760,3660,195,-325,196,
2070,7,27,2023,12,20,6,495,-1658,814,3653,189,-331,201,
2071,7,27,2023,12,20,6,505,-1610,840,3654,169,-331,194,
2072,7,27,2023,12,20,6,515,-1570,852,3623,127,-315,176,
2073,7,27,2023,12,20,6,525,-1367,901,3476,79,-281,141,
2074,7,27,2023,12,20,6,535,-1306,1069,3500,-41,-179,52,
2075,7,27,2023,12,20,6,545,-1653,783,3687,-204,-74,-44,
2076,7,27,2023,12,20,6,555,-1752,574,3749,-198,-91,-36,
2077,7,27,2023,12,20,6,565,-1624,750,3659,-124,-152,14,
2078,7,27,2023,12,20,6,575,-1621,689,3663,-117,-176,23,
2079,7,27,2023,12,20,6,585,-1681,578,3742,-96,-201,46,
2080,7,27,2023,12,20,6,595,-1639,703,3719,-28,-231,86,
2081,7,27,2023,12,20,6,605,-1565,774,3703,7,-216,100,
2082,7,27,2023,12,20,6,615,-1546,765,3691,11,-168,89,
2083,7,27,2023,12,20,6,625,-1604,763,3698,3,-132,66,
2084,7,27,2023,12,20,6,635,-1634,691,3716,1,-129,53,
2085,7,27,2023,12,20,6,645,-1627,730,3725,16,-148,57,
2086,7,27,2023,12,20,6,655,-1629,775,3748,24,-162,73,
2087,7,27,2023,12,20,6,665,-1595,805,3734,24,-165,77,
2088,7,27,2023,12,20,6,675,-1550,791,3718,26,-139,76,
2089,7,27,2023,12,20,6,685,-1595,748,3730,16,-117,68,
2090,7,27,2023,12,20,6,695,-1611,742,3723,20,-119,62,
2091,7,27,2023,12,20,6,705,-1583,798,3703,20,-126,58,
2092,7,27,2023,12,20,6,715,-1568,781,3706,17,-121,45,
2093,7,27,2023,12,20,6,725,-1503,804,3648,8,-111,32,
2094,7,27,2023,12,20,6,735,-1521,806,3666,-21,-88,17,
2095,7,27,2023,12,20,6,745,-1604,714,3742,-33,-75,12,
2096,7,27,2023,12,20,6,755,-1575,670,3725,7,-78,27,
2097,7,27,2023,12,20,6,765,-1550,680,3714,47,-76,41,
2098,7,27,2023,12,20,6,775,-1542,698,3726,79,-57,48,
2099,7,27,2023,12,20,6,785,-1543,765,3704,104,-50,54,
2100,7,27,2023,12,20,6,795,-1567,821,3681,108,-45,51,
2101,7,27,2023,12,20,6,805,-1548,835,3667,88,-49,44,
2102,7,27,2023,12,20,6,815,-1538,879,3643,35,-62,25,
2103,7,27,2023,12,20,6,825,-1509,851,3645,-32,-72,-1,
2104,7,27,2023,12,20,6,835,-1439,860,3619,-97,-70,-30,
2105,7,27,2023,12,20,6,845,-1553,828,3680,-175,-54,-68,
2106,7,27,2023,12,20,6,855,-1565,669,3738,-196,-56,-79,
2107,7,27,2023,12,20,6,865,-1354,777,3564,-160,-53,-69,
2108,7,27,2023,12,20,6,875,-1269,959,3545,-197,34,-109,
2109,7,27,2023,12,20,6,885,-1471,767,3664,-275,150,-179,
2110,7,27,2023,12,20,6,895,-1343,791,3591,-276,202,-212,
2111,7,27,2023,12,20,6,905,-1433,891,3658,-327,274,-265,
2112,7,27,2023,12,20,6,915,-1474,737,3646,-383,318,-312,
2113,7,27,2023,12,20,6,925,-1474,831,3649,-404,346,-350,
2114,7,27,2023,12,20,6,935,-1528,714,3769,-435,371,-395,
2115,7,27,2023,12,20,6,945,-1936,398,4023,-289,299,-386,
2116,7,27,2023,12,20,6,955,-1681,628,3766,-50,169,-319,
2117,7,27,2023,12,20,6,965,-1580,632,3747,-17,174,-283,
2118,7,27,2023,12,20,6,975,-1604,689,3693,-33,190,-281,
2119,7,27,2023,12,20,6,985,-1430,811,3609,-51,192,-299,
2120,7,27,2023,12,20,6,995,-1467,746,3623,-73,217,-357,
2121,7,27,2023,12,20,7,5,-1535,685,3681,-81,272,-401,
2122,7,27,2023,12,20,7,15,-1529,649,3692,-105,326,-444,
2123,7,27,2023,12,20,7,25,-1562,628,3658,-122,388,-473,
2124,7,27,2023,12,20,7,35,-1630,632,3752,-99,448,-499,
2125,7,27,2023,12,20,7,45,-1653,473,3740,-102,502,-507,
2126,7,27,2023,12,20,7,65,-1667,574,3691,-64,655,-515,
2127,7,27,2023,12,20,7,75,-1523,751,3656,-58,738,-559,
2128,7,27,2023,12,20,7,85,-1420,603,3769,-173,891,-564,
2129,7,27,2023,12,20,7,95,-1433,465,3835,-212,1112,-589,
2130,7,27,2023,12,20,7,105,-1424,637,3865,-188,1378,-702,
2131,7,27,2023,12,20,7,115,-1445,578,3911,-276,1745,-770,
2132,7,27,2023,12,20,7,125,-1559,572,3959,-389,2154,-801,
2133,7,27,2023,12,20,7,135,-1545,556,3954,-496,2619,-845,
2134,7,27,2023,12,20,7,145,-1655,594,3905,-677,3187,-900,
2135,7,27,2023,12,20,7,155,-1895,633,3786,-914,3852,-994,
2136,7,27,2023,12,20,7,165,-2034,-130,4147,-1017,4600,-1058,
2137,7,27,2023,12,20,7,175,-1676,791,3822,-583,5329,-1134,
2138,7,27,2023,12,20,7,185,-1784,638,3839,-626,6216,-1392,
2139,7,27,2023,12,20,7,195,-1701,771,3888,-830,7101,-1565,
2140,7,27,2023,12,20,7,205,-1815,947,3650,-1142,7962,-1717,
2141,7,27,2023,12,20,7,215,-1945,1039,3727,-1521,8914,-2025,
2142,7,27,2023,12,20,7,225,-2111,1489,4043,-2126,9918,-2594,
2143,7,27,2023,12,20,7,235,-2392,1221,3823,-2978,10936,-3404,
2144,7,27,2023,12,20,7,245,-3405,1350,3881,-3622,11957,-4301,
2145,7,27,2023,12,20,7,255,-5383,1458,5182,-4154,12733,-5166,
2146,7,27,2023,12,20,7,265,-6183,1499,6023,-4495,12857,-5698,
2147,7,27,2023,12,20,7,275,-6066,1056,5796,-4487,12651,-5773,
2148,7,27,2023,12,20,7,285,-5934,1558,6216,-4741,12539,-5695,
2149,7,27,2023,12,20,7,295,-6426,3717,6418,-5576,12108,-5845,
2150,7,27,2023,12,20,7,305,-5184,2757,3871,-5913,11124,-6033,
2151,7,27,2023,12,20,7,315,-5641,2422,4246,-5327,10801,-6136,
2152,7,27,2023,12,20,7,325,-5847,3316,6309,-5404,10081,-6011,
2153,7,27,2023,12,20,7,335,-5243,8501,7022,-8106,8101,-5825,
2154,7,27,2023,12,20,7,345,-9795,12799,8789,-11221,6865,-2328,
2155,7,27,2023,12,20,7,355,-7076,7683,9867,-9863,4029,3272,
2156,7,27,2023,12,20,7,365,-4025,4884,6745,-8948,271,6542,
