Packet #, Month, Day, Year, Hour, Minute, Second, MS, ACC X, ACC Y, ACC Z, GYR X, GYR Y, GYR Z
1,7,27,2023,13,13,5,896,1824,-1014,3545,8,-5,-12,
2,7,27,2023,13,13,5,906,1831,-1014,3541,3,-3,-10,
3,7,27,2023,13,13,5,916,1825,-1022,3538,6,1,-12,
4,7,27,2023,13,13,5,926,1811,-1020,3548,9,0,-11,
5,7,27,2023,13,13,5,936,1820,-1016,3553,5,-2,-14,
6,7,27,2023,13,13,5,946,1840,-998,3557,-2,-10,-8,
7,7,27,2023,13,13,5,956,1827,-1018,3554,-1,-9,-10,
8,7,27,2023,13,13,5,966,1826,-1004,3554,1,-10,-8,
9,7,27,2023,13,13,5,976,1840,-1002,3542,-5,-13,-5,
10,7,27,2023,13,13,5,986,1828,-1009,3545,-9,-11,-5,
11,7,27,2023,13,13,5,996,1825,-1015,3547,-9,-10,-2,
12,7,27,2023,13,13,6,6,1831,-1028,3541,-8,-7,-1,
13,7,27,2023,13,13,6,16,1824,-1017,3540,-4,-7,-3,
14,7,27,2023,13,13,6,26,1830,-1020,3543,2,-5,-4,
15,7,27,2023,13,13,6,36,1834,-1022,3551,3,-2,-4,
16,7,27,2023,13,13,6,46,1828,-1020,3555,9,-1,-7,
17,7,27,2023,13,13,6,56,1825,-1018,3545,5,1,-7,
18,7,27,2023,13,13,6,66,1819,-1007,3552,6,3,-5,
19,7,27,2023,13,13,6,76,1836,-1014,3549,6,-2,-7,
20,7,27,2023,13,13,6,86,1828,-1008,3554,4,-3,-2,
21,7,27,2023,13,13,6,96,1823,-1010,3550,2,-3,-2,
22,7,27,2023,13,13,6,106,1826,-1001,3549,0,-9,-1,
23,7,27,2023,13,13,6,116,1828,-1005,3543,-5,-11,0,
24,7,27,2023,13,13,6,126,1815,-1019,3545,-5,-9,-2,
25,7,27,2023,13,13,6,136,1819,-1026,3540,-6,-16,-6,
26,7,27,2023,13,13,6,146,1829,-1022,3547,-3,-18,-6,
27,7,27,2023,13,13,6,156,1821,-1016,3552,3,-16,-4,
28,7,27,2023,13,13,6,166,1816,-1019,3550,3,-18,-5,
29,7,27,2023,13,13,6,176,1834,-1015,3553,3,-20,-10,
30,7,27,2023,13,13,6,186,1834,-1010,3557,4,-23,-11,
31,7,27,2023,13,13,6,196,1827,-1018,3542,5,-28,-10,
32,7,27,2023,13,13,6,206,1832,-1020,3546,0,-26,-8,
33,7,27,2023,13,13,6,216,1834,-1000,3546,6,-19,-12,
34,7,27,2023,13,13,6,226,1833,-1002,3542,8,-21,-13,
35,7,27,2023,13,13,6,236,1839,-1011,3531,8,-21,-8,
36,7,27,2023,13,13,6,246,1839,-1002,3536,8,-16,-10,
37,7,27,2023,13,13,6,256,1836,-1001,3538,5,-15,-6,
38,7,27,2023,13,13,6,266,1833,-1002,3537,4,-12,-4,
39,7,27,2023,13,13,6,276,1844,-1005,3546,4,-16,-5,
40,7,27,2023,13,13,6,286,1843,-1015,3534,4,-8,-5,
41,7,27,2023,13,13,6,296,1829,-1007,3530,11,-8,-3,
42,7,27,2023,13,13,6,306,1844,-1006,3544,10,-9,-6,
43,7,27,2023,13,13,6,316,1848,-1036,3532,10,0,-9,
44,7,27,2023,13,13,6,326,1846,-982,3544,22,7,-10,
45,7,27,2023,13,13,6,336,1844,-1009,3529,18,11,-7,
46,7,27,2023,13,13,6,346,1831,-1008,3541,16,15,-10,
47,7,27,2023,13,13,6,356,1840,-1007,3542,20,10,-6,
48,7,27,2023,13,13,6,366,1843,-987,3552,19,12,-8,
49,7,27,2023,13,13,6,376,1829,-1011,3556,16,14,-6,
50,7,27,2023,13,13,6,386,1841,-1009,3560,16,6,-4,
51,7,27,2023,13,13,6,396,1845,-998,3558,17,3,-10,
52,7,27,2023,13,13,6,406,1841,-992,3559,13,6,-11,
53,7,27,2023,13,13,6,416,1853,-988,3550,9,8,-5,
54,7,27,2023,13,13,6,426,1843,-996,3542,4,12,-2,
55,7,27,2023,13,13,6,436,1835,-995,3545,3,14,0,
56,7,27,2023,13,13,6,446,1846,-1000,3544,2,15,1,
57,7,27,2023,13,13,6,456,1837,-999,3543,3,21,4,
58,7,27,2023,13,13,6,466,1828,-1009,3544,1,16,6,
59,7,27,2023,13,13,6,476,1831,-1015,3538,-4,13,9,
60,7,27,2023,13,13,6,486,1837,-999,3542,3,16,3,
61,7,27,2023,13,13,6,496,1829,-997,3558,-2,18,3,
62,7,27,2023,13,13,6,506,1837,-998,3554,-3,15,4,
63,7,27,2023,13,13,6,516,1849,-995,3539,-8,11,6,
64,7,27,2023,13,13,6,526,1837,-998,3544,-13,11,17,
65,7,27,2023,13,13,6,536,1839,-1005,3542,-13,16,17,
66,7,27,2023,13,13,6,546,1834,-1006,3544,-11,21,16,
67,7,27,2023,13,13,6,556,1833,-1012,3543,-6,22,17,
68,7,27,2023,13,13,6,566,1830,-1013,3543,-5,26,15,
69,7,27,2023,13,13,6,576,1830,-1000,3551,-3,22,17,
70,7,27,2023,13,13,6,586,1828,-1007,3555,-8,20,13,
71,7,27,2023,13,13,6,596,1832,-998,3552,-7,20,14,
72,7,27,2023,13,13,6,606,1821,-1003,3560,-8,16,13,
73,7,27,2023,13,13,6,616,1822,-1011,3548,-7,13,13,
74,7,27,2023,13,13,6,626,1830,-1003,3555,-8,11,16,
75,7,27,2023,13,13,6,636,1831,-1024,3556,-5,6,11,
76,7,27,2023,13,13,6,646,1842,-1013,3552,-4,10,6,
77,7,27,2023,13,13,6,656,1832,-1001,3544,-2,13,6,
78,7,27,2023,13,13,6,666,1831,-1004,3544,-4,9,7,
79,7,27,2023,13,13,6,676,1824,-1003,3543,-2,7,12,
80,7,27,2023,13,13,6,686,1830,-1001,3540,-1,6,11,
81,7,27,2023,13,13,6,696,1829,-997,3542,-2,14,9,
82,7,27,2023,13,13,6,706,1827,-1001,3545,-4,16,12,
83,7,27,2023,13,13,6,716,1838,-1000,3548,-7,14,16,
84,7,27,2023,13,13,6,726,1835,-1002,3556,-5,11,16,
85,7,27,2023,13,13,6,736,1829,-1000,3549,-5,13,12,
86,7,27,2023,13,13,6,756,1838,-998,3559,-12,14,14,
87,7,27,2023,13,13,6,766,1838,-1014,3545,-14,17,19,
88,7,27,2023,13,13,6,776,1833,-1017,3535,-10,24,20,
89,7,27,2023,13,13,6,786,1831,-1014,3543,-6,27,18,
90,7,27,2023,13,13,6,796,1826,-993,3542,-5,27,19,
91,7,27,2023,13,13,6,806,1817,-996,3538,-7,27,19,
92,7,27,2023,13,13,6,816,1821,-1000,3531,-5,32,19,
93,7,27,2023,13,13,6,826,1821,-990,3538,-10,34,27,
94,7,27,2023,13,13,6,836,1810,-1005,3545,-15,31,27,
95,7,27,2023,13,13,6,846,1821,-1009,3539,-14,30,31,
96,7,27,2023,13,13,6,856,1825,-1009,3547,-16,34,31,
97,7,27,2023,13,13,6,866,1836,-1017,3558,-18,34,32,
98,7,27,2023,13,13,6,876,1837,-1019,3567,-16,39,30,
99,7,27,2023,13,13,6,886,1824,-1028,3565,-11,41,33,
100,7,27,2023,13,13,6,896,1812,-1026,3555,-8,42,28,
101,7,27,2023,13,13,6,906,1804,-1022,3556,-10,35,26,
102,7,27,2023,13,13,6,916,1797,-1026,3563,-15,26,27,
103,7,27,2023,13,13,6,926,1827,-1004,3570,-16,17,25,
104,7,27,2023,13,13,6,936,1795,-1003,3558,-23,7,28,
105,7,27,2023,13,13,6,946,1789,-1029,3580,-27,-12,25,
106,7,27,2023,13,13,6,956,1848,-999,3552,-32,-15,22,
107,7,27,2023,13,13,6,966,1835,-999,3551,-35,-7,27,
108,7,27,2023,13,13,6,976,1797,-1053,3557,-34,-4,30,
109,7,27,2023,13,13,6,986,1821,-1069,3538,-10,1,18,
110,7,27,2023,13,13,6,996,1822,-1028,3558,-9,-1,14,
111,7,27,2023,13,13,7,6,1806,-1020,3568,-12,-4,14,
112,7,27,2023,13,13,7,16,1803,-1031,3558,-14,-11,11,
113,7,27,2023,13,13,7,26,1803,-1023,3557,-14,-18,3,
114,7,27,2023,13,13,7,36,1824,-1009,3556,-13,-21,1,
115,7,27,2023,13,13,7,46,1826,-1006,3548,-17,-24,-2,
116,7,27,2023,13,13,7,56,1821,-1019,3533,-17,-19,3,
117,7,27,2023,13,13,7,66,1806,-1041,3522,-10,-11,6,
118,7,27,2023,13,13,7,76,1821,-1017,3511,-4,-7,0,
119,7,27,2023,13,13,7,86,1836,-1003,3531,3,-1,1,
120,7,27,2023,13,13,7,96,1821,-1019,3524,8,13,5,
121,7,27,2023,13,13,7,106,1816,-1029,3528,13,19,6,
122,7,27,2023,13,13,7,116,1817,-1020,3561,14,25,5,
123,7,27,2023,13,13,7,126,1830,-1005,3561,12,21,5,
124,7,27,2023,13,13,7,136,1820,-1013,3571,7,14,5,
125,7,27,2023,13,13,7,146,1808,-1026,3574,2,11,6,
126,7,27,2023,13,13,7,156,1827,-1019,3561,-1,6,3,
127,7,27,2023,13,13,7,166,1826,-1021,3563,-4,0,2,
128,7,27,2023,13,13,7,176,1806,-1042,3564,-4,-4,0,
129,7,27,2023,13,13,7,186,1837,-1015,3573,-2,-7,-3,
130,7,27,2023,13,13,7,196,1832,-1007,3565,-6,-11,5,
131,7,27,2023,13,13,7,206,1801,-1051,3543,-6,-13,4,
132,7,27,2023,13,13,7,216,1822,-1031,3539,1,-14,-5,
133,7,27,2023,13,13,7,226,1826,-1011,3522,5,-13,-1,
134,7,27,2023,13,13,7,236,1818,-1009,3524,11,-5,-4,
135,7,27,2023,13,13,7,246,1811,-1015,3534,12,-1,-7,
136,7,27,2023,13,13,7,256,1819,-1031,3523,11,-2,-4,
137,7,27,2023,13,13,7,266,1833,-990,3538,14,-2,-8,
138,7,27,2023,13,13,7,276,1832,-991,3546,9,1,-3,
139,7,27,2023,13,13,7,286,1819,-1021,3548,5,1,0,
140,7,27,2023,13,13,7,296,1822,-1024,3549,7,3,0,
141,7,27,2023,13,13,7,306,1812,-1034,3551,4,-3,1,
142,7,27,2023,13,13,7,316,1828,-986,3563,4,-4,-1,
143,7,27,2023,13,13,7,326,1827,-1004,3551,1,-1,4,
144,7,27,2023,13,13,7,336,1816,-1040,3547,-3,3,6,
145,7,27,2023,13,13,7,346,1809,-1023,3544,-2,-4,3,
146,7,27,2023,13,13,7,356,1816,-1004,3546,-2,-6,5,
147,7,27,2023,13,13,7,366,1820,-1018,3545,-5,-7,4,
148,7,27,2023,13,13,7,376,1810,-1022,3552,-5,-10,3,
149,7,27,2023,13,13,7,386,1828,-1009,3523,-4,-10,4,
150,7,27,2023,13,13,7,396,1824,-963,3522,-8,-2,4,
151,7,27,2023,13,13,7,406,1795,-934,3528,-10,2,12,
152,7,27,2023,13,13,7,416,1799,-988,3515,-19,10,10,
153,7,27,2023,13,13,7,426,1857,-1108,3565,-16,20,8,
154,7,27,2023,13,13,7,436,1858,-1255,3665,8,18,0,
155,7,27,2023,13,13,7,446,1894,-1113,3649,46,3,-36,
156,7,27,2023,13,13,7,456,1900,-824,3571,53,14,-53,
157,7,27,2023,13,13,7,466,1875,-908,3512,13,29,-16,
158,7,27,2023,13,13,7,476,1807,-1170,3496,-9,28,14,
159,7,27,2023,13,13,7,486,1757,-1190,3512,23,17,-4,
160,7,27,2023,13,13,7,496,1743,-894,3586,63,22,-40,
161,7,27,2023,13,13,7,506,1799,-816,3606,31,7,-34,
162,7,27,2023,13,13,7,516,1793,-877,3577,-31,-15,-1,
163,7,27,2023,13,13,7,526,1802,-977,3560,-74,-34,32,
164,7,27,2023,13,13,7,536,1855,-1036,3520,-94,-45,51,
165,7,27,2023,13,13,7,546,1859,-1119,3462,-69,-23,35,
166,7,27,2023,13,13,7,556,1775,-1129,3461,-27,-3,24,
167,7,27,2023,13,13,7,566,1828,-1056,3523,6,0,1,
168,7,27,2023,13,13,7,576,1866,-1004,3538,22,17,-15,
169,7,27,2023,13,13,7,586,1805,-993,3568,24,24,-8,
170,7,27,2023,13,13,7,596,1779,-1012,3571,16,17,-6,
171,7,27,2023,13,13,7,616,1815,-1005,3561,1,3,-10,
172,7,27,2023,13,13,7,626,1821,-1032,3559,-4,-4,-8,
173,7,27,2023,13,13,7,636,1822,-1011,3567,-6,-8,-10,
174,7,27,2023,13,13,7,646,1837,-956,3584,-15,-18,-9,
175,7,27,2023,13,13,7,656,1863,-957,3581,-43,-33,6,
176,7,27,2023,13,13,7,666,1857,-1028,3555,-56,-28,22,
177,7,27,2023,13,13,7,676,1806,-1091,3530,-49,-22,19,
178,7,27,2023,13,13,7,686,1777,-1094,3542,-32,-29,4,
179,7,27,2023,13,13,7,696,1819,-1021,3553,-19,-36,-13,
180,7,27,2023,13,13,7,706,1824,-992,3565,-22,-45,-14,
181,7,27,2023,13,13,7,716,1812,-1012,3558,-30,-53,-15,
182,7,27,2023,13,13,7,726,1831,-1009,3554,-37,-63,-13,
183,7,27,2023,13,13,7,736,1859,-983,3529,-51,-64,-6,
184,7,27,2023,13,13,7,746,1866,-992,3532,-56,-58,6,
185,7,27,2023,13,13,7,756,1847,-1040,3529,-52,-50,8,
186,7,27,2023,13,13,7,766,1821,-1029,3538,-46,-51,5,
187,7,27,2023,13,13,7,776,1828,-1021,3543,-50,-57,2,
188,7,27,2023,13,13,7,786,1814,-1022,3543,-48,-59,11,
189,7,27,2023,13,13,7,796,1819,-1042,3516,-45,-57,7,
190,7,27,2023,13,13,7,806,1824,-1037,3527,-43,-57,4,
191,7,27,2023,13,13,7,816,1830,-1029,3524,-41,-54,7,
192,7,27,2023,13,13,7,826,1884,-1010,3546,-43,-54,4,
193,7,27,2023,13,13,7,836,1853,-1017,3545,-44,-42,8,
194,7,27,2023,13,13,7,846,1886,-1016,3559,-49,-45,12,
195,7,27,2023,13,13,7,856,2318,-1026,3378,-49,-44,19,
196,7,27,2023,13,13,7,866,2556,-891,3238,-74,-87,-39,
197,7,27,2023,13,13,7,876,833,-1160,3991,-45,13,73,
198,7,27,2023,13,13,7,886,2815,-1060,3074,-92,-126,-19,
199,7,27,2023,13,13,7,896,1476,-1016,3761,-7,21,25,
200,7,27,2023,13,13,7,906,1976,-1084,3464,-32,-50,1,
201,7,27,2023,13,13,7,916,1935,-828,3329,-16,-13,18,
202,7,27,2023,13,13,7,926,1711,-1170,3635,-17,3,9,
203,7,27,2023,13,13,7,936,2269,-1048,3430,-8,-36,-8,
204,7,27,2023,13,13,7,946,2075,-882,3363,-6,-5,13,
205,7,27,2023,13,13,7,956,2084,-1034,3460,-5,-12,-6,
206,7,27,2023,13,13,7,966,1974,-985,3468,-9,-45,-1,
207,7,27,2023,13,13,7,976,2082,-974,3559,-31,-54,12,
208,7,27,2023,13,13,7,986,1879,-978,3438,-14,-5,7,
209,7,27,2023,13,13,7,996,1858,-1016,3448,-17,-23,6,
210,7,27,2023,13,13,8,6,2057,-1044,3532,-30,-58,-1,
211,7,27,2023,13,13,8,16,1956,-1035,3456,-49,-42,-9,
212,7,27,2023,13,13,8,26,1962,-1096,3506,-69,-58,-29,
213,7,27,2023,13,13,8,36,1998,-1058,3487,-55,-80,-46,
214,7,27,2023,13,13,8,46,2001,-924,3433,-39,-83,-54,
215,7,27,2023,13,13,8,56,2035,-1008,3480,-46,-87,-66,
216,7,27,2023,13,13,8,66,2052,-1000,3427,-38,-105,-64,
217,7,27,2023,13,13,8,76,2031,-973,3489,-23,-130,-88,
218,7,27,2023,13,13,8,86,1929,-1029,3543,-32,-164,-99,
219,7,27,2023,13,13,8,96,1992,-991,3488,-32,-205,-108,
220,7,27,2023,13,13,8,106,2120,-954,3463,-38,-218,-108,
221,7,27,2023,13,13,8,116,2068,-988,3458,-33,-201,-96,
222,7,27,2023,13,13,8,126,1905,-1018,3476,-25,-180,-75,
223,7,27,2023,13,13,8,136,2057,-1082,3406,-10,-200,-95,
224,7,27,2023,13,13,8,146,2202,-1017,3337,25,-218,-133,
225,7,27,2023,13,13,8,156,1965,-967,3464,51,-217,-140,
226,7,27,2023,13,13,8,166,2038,-988,3512,34,-269,-141,
227,7,27,2023,13,13,8,176,2183,-999,3440,24,-276,-147,
228,7,27,2023,13,13,8,186,2109,-957,3431,32,-251,-140,
229,7,27,2023,13,13,8,196,2076,-973,3422,27,-248,-145,
230,7,27,2023,13,13,8,206,2022,-994,3427,38,-258,-154,
231,7,27,2023,13,13,8,216,1967,-986,3473,43,-283,-160,
232,7,27,2023,13,13,8,226,2064,-1015,3492,32,-307,-162,
233,7,27,2023,13,13,8,236,2226,-933,3380,28,-293,-160,
234,7,27,2023,13,13,8,246,2247,-883,3346,11,-274,-154,
235,7,27,2023,13,13,8,256,2080,-887,3405,1,-252,-127,
236,7,27,2023,13,13,8,266,2046,-945,3424,-13,-256,-116,
237,7,27,2023,13,13,8,276,2101,-986,3438,-21,-264,-121,
238,7,27,2023,13,13,8,286,2123,-976,3414,-23,-268,-127,
239,7,27,2023,13,13,8,296,2194,-961,3346,-20,-274,-131,
240,7,27,2023,13,13,8,306,2113,-974,3415,-5,-260,-133,
241,7,27,2023,13,13,8,316,2077,-1030,3419,0,-239,-127,
242,7,27,2023,13,13,8,326,2131,-1036,3358,12,-218,-140,
243,7,27,2023,13,13,8,336,2136,-1068,3329,39,-218,-169,
244,7,27,2023,13,13,8,346,1975,-1077,3442,71,-217,-195,
245,7,27,2023,13,13,8,356,2034,-1054,3469,67,-230,-214,
246,7,27,2023,13,13,8,366,2215,-1014,3397,52,-232,-241,
247,7,27,2023,13,13,8,376,2274,-912,3372,71,-208,-248,
248,7,27,2023,13,13,8,386,2113,-883,3453,78,-188,-227,
249,7,27,2023,13,13,8,396,2014,-924,3466,66,-196,-203,
250,7,27,2023,13,13,8,406,2105,-938,3424,53,-231,-201,
251,7,27,2023,13,13,8,416,2149,-836,3444,43,-249,-191,
252,7,27,2023,13,13,8,426,2107,-782,3476,19,-249,-150,
253,7,27,2023,13,13,8,436,2284,-728,3377,-6,-270,-102,
254,7,27,2023,13,13,8,446,2527,-658,3233,-40,-305,-81,
255,7,27,2023,13,13,8,456,2277,-733,3307,-71,-301,-40,
256,7,27,2023,13,13,8,476,2136,-961,3348,-113,-302,7,
257,7,27,2023,13,13,8,486,2257,-902,3264,-136,-264,-5,
258,7,27,2023,13,13,8,496,2590,-795,3076,-148,-269,-24,
259,7,27,2023,13,13,8,506,2429,-869,3206,-127,-273,-29,
260,7,27,2023,13,13,8,516,2089,-1066,3381,-103,-234,-14,
261,7,27,2023,13,13,8,526,2391,-1121,3192,-85,-234,-56,
262,7,27,2023,13,13,8,536,2671,-967,3076,-34,-231,-124,
263,7,27,2023,13,13,8,546,2385,-853,3258,10,-222,-137,
264,7,27,2023,13,13,8,556,2059,-949,3450,15,-253,-119,
265,7,27,2023,13,13,8,566,2050,-1087,3464,3,-287,-113,
266,7,27,2023,13,13,8,576,2275,-1040,3365,11,-297,-126,
267,7,27,2023,13,13,8,586,2703,-852,3170,28,-327,-153,
268,7,27,2023,13,13,8,596,2441,-815,3334,55,-352,-139,
269,7,27,2023,13,13,8,606,2458,-897,3284,55,-394,-131,
270,7,27,2023,13,13,8,616,2551,-907,3296,61,-471,-179,
271,7,27,2023,13,13,8,626,2286,-1000,3427,66,-460,-179,
272,7,27,2023,13,13,8,636,2129,-1027,3385,83,-460,-175,
273,7,27,2023,13,13,8,646,2324,-984,3340,80,-521,-211,
274,7,27,2023,13,13,8,656,2725,-786,3107,89,-558,-237,
275,7,27,2023,13,13,8,666,2690,-702,3152,85,-627,-270,
276,7,27,2023,13,13,8,676,2267,-805,3440,74,-636,-239,
277,7,27,2023,13,13,8,686,2375,-918,3243,70,-646,-235,
278,7,27,2023,13,13,8,696,2451,-881,3265,74,-703,-250,
279,7,27,2023,13,13,8,706,2464,-919,3236,70,-728,-250,
280,7,27,2023,13,13,8,716,2514,-770,3146,95,-773,-272,
281,7,27,2023,13,13,8,726,2452,-849,3295,76,-805,-271,
282,7,27,2023,13,13,8,736,2510,-964,3152,70,-814,-273,
283,7,27,2023,13,13,8,746,2516,-859,3142,94,-843,-290,
284,7,27,2023,13,13,8,756,2639,-831,3087,95,-891,-327,
285,7,27,2023,13,13,8,766,2411,-738,3265,152,-932,-317,
286,7,27,2023,13,13,8,776,2673,-800,3092,136,-1010,-326,
287,7,27,2023,13,13,8,786,2437,-711,3406,91,-1100,-313,
288,7,27,2023,13,13,8,796,2423,-750,3319,-97,-1244,-331,
289,7,27,2023,13,13,8,806,1730,-533,3842,-343,-1559,-342,
290,7,27,2023,13,13,8,816,1423,-944,4463,-792,-2014,-327,
291,7,27,2023,13,13,8,826,2562,-1036,3739,-1036,-2603,-475,
292,7,27,2023,13,13,8,836,2404,-1032,4353,-1055,-3390,-610,
293,7,27,2023,13,13,8,846,2149,-1716,4589,-984,-4100,-796,
294,7,27,2023,13,13,8,856,1412,-2300,5162,-672,-4971,-1106,
295,7,27,2023,13,13,8,866,1950,-2037,5236,-567,-5972,-1522,
296,7,27,2023,13,13,8,876,3388,-2075,4967,-1013,-7402,-2173,
297,7,27,2023,13,13,8,886,5174,-2186,5923,-1608,-8339,-2555,
298,7,27,2023,13,13,8,896,5451,-3042,6508,-2421,-8267,-2818,
299,7,27,2023,13,13,8,906,4640,-2981,5554,-3174,-7645,-3124,
300,7,27,2023,13,13,8,916,5294,-2597,4300,-3844,-6913,-3669,
301,7,27,2023,13,13,8,926,4887,-2381,3730,-4135,-5469,-4135,
302,7,27,2023,13,13,8,936,2750,-2480,2878,-3919,-3077,-4478,
303,7,27,2023,13,13,8,946,-2915,-4982,4929,-3025,-440,-4507,
304,7,27,2023,13,13,8,956,392,-6868,7063,-953,3178,-4081,
305,7,27,2023,13,13,8,966,-6172,-3850,5118,779,7124,-3617,
306,7,27,2023,13,13,8,976,-7633,-2920,3547,818,9162,-3034,
307,7,27,2023,13,13,8,986,-6353,-3238,3100,7,10239,-2477,
308,7,27,2023,13,13,8,996,-6167,-3265,2547,-796,10752,-1904,
309,7,27,2023,13,13,9,6,-4773,-3108,2567,-1579,10604,-1056,
310,7,27,2023,13,13,9,16,-2938,-3198,2854,-2402,9944,204,
311,7,27,2023,13,13,9,26,-916,-3352,3216,-3142,9072,1865,
312,7,27,2023,13,13,9,36,638,-3682,3352,-3634,8184,3930,
313,7,27,2023,13,13,9,46,1815,-3737,3514,-3635,7079,6057,
314,7,27,2023,13,13,9,56,3005,-2879,3897,-3322,5752,7970,
315,7,27,2023,13,13,9,66,4115,-2086,4200,-3305,4489,9553,
316,7,27,2023,13,13,9,76,5004,-1918,4415,-3508,3470,10781,
317,7,27,2023,13,13,9,86,6602,-2021,4799,-3567,2760,11588,
318,7,27,2023,13,13,9,96,7921,-2039,4838,-3503,2510,12181,
319,7,27,2023,13,13,9,106,8622,-2385,4213,-2995,2537,12457,
320,7,27,2023,13,13,9,116,8824,-2234,3121,-1797,2614,12157,
321,7,27,2023,13,13,9,126,8535,-2412,1504,-185,2498,11056,
322,7,27,2023,13,13,9,136,9319,628,-379,1790,1794,8772,
323,7,27,2023,13,13,9,146,9226,2560,-803,1949,1158,6348,
324,7,27,2023,13,13,9,156,9837,589,-2486,1521,363,3650,
325,7,27,2023,13,13,9,166,10206,1461,-5120,2582,-1392,231,
326,7,27,2023,13,13,9,176,10767,3371,-5372,3850,-3616,-2917,
327,7,27,2023,13,13,9,186,2002,3440,-758,4847,-6561,-4803,
328,7,27,2023,13,13,9,196,5805,-1975,6297,4804,-9098,-4661,
329,7,27,2023,13,13,9,206,3965,-4230,8444,4484,-7531,-3687,
330,7,27,2023,13,13,9,216,5811,-1453,6793,3848,-5500,-3472,
331,7,27,2023,13,13,9,226,8853,2478,6719,2824,-4318,-3775,
332,7,27,2023,13,13,9,236,7848,1360,6182,2066,-2343,-2693,
333,7,27,2023,13,13,9,246,3870,-21,3607,1782,447,-1842,
334,7,27,2023,13,13,9,256,2953,-2068,3563,1368,659,-1345,
335,7,27,2023,13,13,9,266,2698,-1442,3394,908,553,-614,
336,7,27,2023,13,13,9,276,1561,-1624,3560,853,753,-569,
337,7,27,2023,13,13,9,286,1196,-2220,3049,889,655,-539,
338,7,27,2023,13,13,9,296,2337,-1945,2948,1051,313,-773,
339,7,27,2023,13,13,9,306,2938,-273,3313,1249,493,-801,
340,7,27,2023,13,13,9,316,1584,260,4308,1000,585,-517,
341,7,27,2023,13,13,9,336,1780,-843,3947,358,94,-105,
342,7,27,2023,13,13,9,346,1480,-1457,3976,271,-12,-105,
343,7,27,2023,13,13,9,356,1896,-963,4031,283,-129,-172,
344,7,27,2023,13,13,9,366,1244,-1070,3998,222,-137,-157,
345,7,27,2023,13,13,9,376,1900,-796,3887,145,-434,-184,
346,7,27,2023,13,13,9,386,1812,-941,3597,82,-584,-182,
347,7,27,2023,13,13,9,396,1635,-1253,3661,54,-625,-194,
348,7,27,2023,13,13,9,406,2106,-1268,3421,92,-624,-258,
349,7,27,2023,13,13,9,416,2013,-1012,3558,137,-752,-317,
350,7,27,2023,13,13,9,426,1445,-1174,3785,121,-802,-310,
351,7,27,2023,13,13,9,436,1979,-935,3620,120,-878,-358,
352,7,27,2023,13,13,9,446,2468,-734,3477,108,-920,-372,
353,7,27,2023,13,13,9,456,1387,-753,3878,64,-926,-315,
354,7,27,2023,13,13,9,466,2105,-930,3342,-44,-928,-250,
355,7,27,2023,13,13,9,476,2701,-381,3318,-67,-1079,-260,
356,7,27,2023,13,13,9,486,1278,-690,4094,-199,-1169,-219,
357,7,27,2023,13,13,9,496,1248,-1276,3591,-253,-913,-94,
358,7,27,2023,13,13,9,506,3635,-747,2849,-252,-1269,-277,
359,7,27,2023,13,13,9,516,1697,-871,3802,-264,-1280,-287,
360,7,27,2023,13,13,9,526,813,-1428,3536,-249,-1023,-168,
361,7,27,2023,13,13,9,536,3306,-1156,2812,-285,-1319,-356,
362,7,27,2023,13,13,9,546,2116,-771,3574,-196,-1274,-356,
363,7,27,2023,13,13,9,556,1628,-1253,3201,-176,-1072,-301,
364,7,27,2023,13,13,9,566,2444,-776,3238,-70,-1183,-384,
365,7,27,2023,13,13,9,576,2759,-839,3199,-127,-1125,-333,
366,7,27,2023,13,13,9,586,2163,-940,3046,-102,-1072,-308,
367,7,27,2023,13,13,9,596,2412,-1039,3205,-73,-1121,-343,
368,7,27,2023,13,13,9,606,2864,-1129,3016,-95,-1123,-431,
369,7,27,2023,13,13,9,616,2170,-980,3272,-21,-1155,-491,
370,7,27,2023,13,13,9,626,1806,-1217,3495,22,-1099,-493,
371,7,27,2023,13,13,9,636,3224,-1192,2836,-31,-1324,-732,
372,7,27,2023,13,13,9,646,2175,-759,3639,119,-1434,-734,
373,7,27,2023,13,13,9,656,1800,-1135,3361,107,-1327,-690,
374,7,27,2023,13,13,9,666,3438,-939,2889,39,-1717,-921,
375,7,27,2023,13,13,9,676,1739,-975,3987,193,-1824,-820,
376,7,27,2023,13,13,9,686,2081,-915,3120,149,-1850,-850,
377,7,27,2023,13,13,9,696,2674,-980,3489,149,-2352,-983,
378,7,27,2023,13,13,9,706,2681,-769,3729,211,-2604,-965,
379,7,27,2023,13,13,9,716,2035,-666,3572,196,-2877,-935,
380,7,27,2023,13,13,9,726,2108,-711,3937,171,-3409,-942,
381,7,27,2023,13,13,9,736,3150,-566,3612,107,-3907,-981,
382,7,27,2023,13,13,9,746,1878,-474,3858,176,-4328,-864,
383,7,27,2023,13,13,9,756,2371,-599,3671,168,-4876,-942,
384,7,27,2023,13,13,9,766,3183,-565,3227,152,-5514,-1007,
385,7,27,2023,13,13,9,776,1821,-392,3539,179,-6124,-1001,
386,7,27,2023,13,13,9,786,2197,-522,3447,-6,-6932,-1176,
387,7,27,2023,13,13,9,796,2658,-790,3992,-276,-7830,-1403,
388,7,27,2023,13,13,9,806,2565,-646,4160,-791,-8649,-1345,
389,7,27,2023,13,13,9,816,2679,-234,4620,-1615,-9827,-1265,
390,7,27,2023,13,13,9,826,3351,-368,5534,-2754,-11384,-1014,
391,7,27,2023,13,13,9,836,3717,-2844,4339,-4023,-12407,-561,
392,7,27,2023,13,13,9,846,5680,-3603,3960,-3968,-12845,-1268,
393,7,27,2023,13,13,9,856,6780,-1311,5320,-3578,-12763,-2182,
394,7,27,2023,13,13,9,866,5239,-2293,4330,-4358,-11717,-2458,
395,7,27,2023,13,13,9,876,5920,-3640,3818,-4282,-11456,-3199,
396,7,27,2023,13,13,9,886,6059,-3570,4446,-3472,-10591,-3909,
397,7,27,2023,13,13,9,896,4568,-2993,3362,-2928,-9229,-4699,
398,7,27,2023,13,13,9,906,4071,-3386,3251,-2685,-8875,-5450,
399,7,27,2023,13,13,9,916,5702,-1639,2660,-2763,-7646,-5740,
400,7,27,2023,13,13,9,926,3293,12,2012,-3889,-5966,-5442,
401,7,27,2023,13,13,9,936,1861,299,1858,-5641,-5344,-4785,
402,7,27,2023,13,13,9,946,2119,-898,2412,-6800,-5274,-4406,
403,7,27,2023,13,13,9,956,9506,-4659,3862,-8100,-3713,-4038,
404,7,27,2023,13,13,9,966,4834,-6386,3454,-6557,1263,-3193,
405,7,27,2023,13,13,9,976,1086,-4830,1773,-2972,4778,-2178,
406,7,27,2023,13,13,9,986,1529,-3874,1778,-263,5811,-1482,
407,7,27,2023,13,13,9,996,1931,-3055,2062,1320,6863,-1290,
408,7,27,2023,13,13,10,6,1324,-2108,1780,2086,8147,-879,
409,7,27,2023,13,13,10,16,1441,-1624,1679,2291,8935,-363,
410,7,27,2023,13,13,10,26,1298,-1599,1587,2083,9588,93,
411,7,27,2023,13,13,10,36,698,-1516,1427,1724,10028,395,
412,7,27,2023,13,13,10,46,478,-1368,1389,1299,9980,626,
413,7,27,2023,13,13,10,56,773,-1219,1554,783,9664,895,
414,7,27,2023,13,13,10,66,1370,-1081,1666,190,9331,1418,
415,7,27,2023,13,13,10,76,1806,-1276,1782,-372,9118,2225,
416,7,27,2023,13,13,10,86,2122,-1573,1938,-712,9029,3161,
417,7,27,2023,13,13,10,96,2396,-1688,2050,-776,8961,4165,
418,7,27,2023,13,13,10,106,2569,-1514,2229,-647,8887,5116,
419,7,27,2023,13,13,10,116,2651,-1023,2384,-591,8741,5907,
420,7,27,2023,13,13,10,126,2930,-591,2503,-807,8508,6464,
421,7,27,2023,13,13,10,136,3051,-285,2668,-1213,8213,6783,
422,7,27,2023,13,13,10,146,3176,-60,2939,-1690,7798,6855,
423,7,27,2023,13,13,10,156,3568,-159,3196,-2230,7362,6694,
424,7,27,2023,13,13,10,166,3928,-555,3406,-2644,7041,6347,
425,7,27,2023,13,13,10,176,4119,-1084,3594,-2741,6837,5902,
426,7,27,2023,13,13,10,196,4222,-1490,4085,-1984,6638,5053,
427,7,27,2023,13,13,10,206,4410,-1377,4349,-1652,6472,4786,
428,7,27,2023,13,13,10,216,4632,-1356,4428,-1560,6240,4646,
429,7,27,2023,13,13,10,226,5100,-1425,4370,-1562,5954,4628,
430,7,27,2023,13,13,10,236,5552,-1515,4205,-1552,5646,4692,
431,7,27,2023,13,13,10,246,5859,-1453,4013,-1458,5302,4811,
432,7,27,2023,13,13,10,256,6048,-1237,3870,-1313,4884,4957,
433,7,27,2023,13,13,10,266,6147,-859,3753,-1202,4402,5099,
434,7,27,2023,13,13,10,276,6224,-555,3632,-1174,3882,5208,
435,7,27,2023,13,13,10,286,6484,-416,3390,-1165,3375,5222,
436,7,27,2023,13,13,10,296,6926,-315,3080,-1030,2980,5070,
437,7,27,2023,13,13,10,306,7294,-104,2664,-752,2765,4799,
438,7,27,2023,13,13,10,316,7500,203,2223,-363,2727,4433,
439,7,27,2023,13,13,10,326,7403,435,1870,145,2843,3949,
440,7,27,2023,13,13,10,336,7257,725,1380,606,3043,3337,
441,7,27,2023,13,13,10,346,7045,1110,853,912,3213,2625,
442,7,27,2023,13,13,10,356,6702,1575,435,1003,3213,1891,
443,7,27,2023,13,13,10,366,6274,2065,147,788,2980,1184,
444,7,27,2023,13,13,10,376,6014,2514,-72,300,2504,506,
445,7,27,2023,13,13,10,386,6089,2650,-233,-416,1869,-153,
446,7,27,2023,13,13,10,396,6138,2215,-272,-1134,1196,-807,
447,7,27,2023,13,13,10,406,5417,383,-288,-1329,473,-1533,
448,7,27,2023,13,13,10,416,5181,633,-596,-332,-700,-2946,
449,7,27,2023,13,13,10,426,2133,729,1494,207,-1869,-4369,
450,7,27,2023,13,13,10,436,-251,-3600,5309,1617,-2783,-5028,
451,7,27,2023,13,13,10,446,-847,-8186,5347,2089,-2673,-5073,
452,7,27,2023,13,13,10,456,-1001,-8203,3384,1568,-2702,-4454,
453,7,27,2023,13,13,10,466,3353,-4835,2629,1799,-3991,-3992,
454,7,27,2023,13,13,10,476,6608,-4500,2737,3019,-4643,-3058,
455,7,27,2023,13,13,10,486,6743,-1741,2583,3789,-4294,-2245,
456,7,27,2023,13,13,10,496,5583,2262,4123,3372,-3324,-1641,
457,7,27,2023,13,13,10,506,3852,2021,6103,2813,-2020,-1556,
458,7,27,2023,13,13,10,516,2119,1818,6329,2346,-468,-1303,
459,7,27,2023,13,13,10,526,4088,841,4778,1267,-468,-792,
460,7,27,2023,13,13,10,536,3765,-297,4543,627,-295,-260,
461,7,27,2023,13,13,10,546,2013,-955,4647,255,-73,42,
462,7,27,2023,13,13,10,556,1721,-1306,3743,-33,-166,70,
463,7,27,2023,13,13,10,566,1751,-1745,3489,-69,-290,39,
464,7,27,2023,13,13,10,576,1416,-1268,3100,-38,-257,43,
465,7,27,2023,13,13,10,586,1842,-915,3011,-57,-370,-26,
466,7,27,2023,13,13,10,596,1157,-1902,3704,1,-287,-95,
467,7,27,2023,13,13,10,606,1683,-2148,3174,82,-263,-182,
468,7,27,2023,13,13,10,616,2514,-1528,3161,301,-281,-338,
469,7,27,2023,13,13,10,626,105,-1657,4078,380,72,-302,
470,7,27,2023,13,13,10,636,3250,-709,2837,275,-275,-344,
471,7,27,2023,13,13,10,646,1954,-1023,3966,309,-148,-413,
472,7,27,2023,13,13,10,656,437,-1405,3977,188,-69,-241,
473,7,27,2023,13,13,10,666,3269,-565,3355,153,-403,-398,
474,7,27,2023,13,13,10,676,1432,-1290,3823,47,-242,-249,
475,7,27,2023,13,13,10,686,1781,-1361,3437,37,-367,-262,
476,7,27,2023,13,13,10,696,2098,-976,3538,47,-443,-269,
477,7,27,2023,13,13,10,706,2160,-1245,3379,13,-453,-271,
478,7,27,2023,13,13,10,716,1945,-1188,3503,28,-464,-275,
479,7,27,2023,13,13,10,726,2477,-959,3334,32,-550,-307,
480,7,27,2023,13,13,10,736,1871,-982,3706,38,-531,-342,
481,7,27,2023,13,13,10,746,1538,-1471,3458,-16,-485,-277,
482,7,27,2023,13,13,10,756,3088,-755,3199,81,-658,-449,
483,7,27,2023,13,13,10,766,984,-1058,4154,-56,-531,-281,
484,7,27,2023,13,13,10,776,2632,-1041,2950,-165,-639,-224,
485,7,27,2023,13,13,10,786,2090,-887,3474,-104,-660,-407,
486,7,27,2023,13,13,10,796,1417,-1217,3682,-223,-583,-152,
487,7,27,2023,13,13,10,806,2617,-1095,3098,-151,-740,-306,
488,7,27,2023,13,13,10,816,2246,-1052,3249,-156,-707,-270,
489,7,27,2023,13,13,10,826,2003,-946,3390,-169,-713,-204,
490,7,27,2023,13,13,10,836,2043,-1281,3286,-185,-753,-232,
491,7,27,2023,13,13,10,846,2494,-1011,3374,-176,-810,-279,
492,7,27,2023,13,13,10,856,1909,-1195,3368,-170,-730,-243,
493,7,27,2023,13,13,10,866,2430,-1149,3158,-111,-817,-349,
494,7,27,2023,13,13,10,876,2495,-1060,3307,-84,-832,-414,
495,7,27,2023,13,13,10,886,2232,-968,3258,-89,-804,-402,
496,7,27,2023,13,13,10,896,2665,-975,3103,-100,-913,-496,
497,7,27,2023,13,13,10,906,2227,-994,3409,-94,-909,-488,
498,7,27,2023,13,13,10,916,2249,-1109,3241,-90,-926,-485,
499,7,27,2023,13,13,10,926,2381,-1089,3254,-42,-1051,-573,
500,7,27,2023,13,13,10,936,2124,-1034,3373,-21,-1022,-521,
501,7,27,2023,13,13,10,946,3075,-989,2760,28,-1190,-654,
502,7,27,2023,13,13,10,956,1145,-1447,4023,69,-1284,-630,
503,7,27,2023,13,13,10,966,3218,-869,2800,9,-1187,-546,
504,7,27,2023,13,13,10,976,2502,-1131,3195,182,-1545,-854,
505,7,27,2023,13,13,10,986,1693,-1057,3761,92,-1364,-535,
506,7,27,2023,13,13,10,996,2825,-1276,2810,148,-1699,-847,
507,7,27,2023,13,13,11,6,2367,-772,3703,221,-1834,-738,
508,7,27,2023,13,13,11,16,2451,-1179,3197,192,-1954,-789,
509,7,27,2023,13,13,11,26,2587,-933,3383,341,-2279,-793,
510,7,27,2023,13,13,11,36,2778,-1112,3583,327,-2621,-875,
511,7,27,2023,13,13,11,56,1675,-1254,4217,400,-3550,-1075,
512,7,27,2023,13,13,11,66,3202,-620,3331,285,-3998,-1215,
513,7,27,2023,13,13,11,76,1496,-1363,4360,325,-4740,-1413,
514,7,27,2023,13,13,11,86,2398,-359,3614,210,-5331,-1443,
515,7,27,2023,13,13,11,96,704,-1552,4626,170,-6598,-1895,
516,7,27,2023,13,13,11,106,498,-670,4908,-118,-7850,-2110,
517,7,27,2023,13,13,11,116,1768,-3291,4530,-352,-9689,-2784,
518,7,27,2023,13,13,11,126,4316,-2601,5246,-256,-11239,-3179,
519,7,27,2023,13,13,11,136,2094,-3085,5304,-468,-12077,-3878,
520,7,27,2023,13,13,11,146,1775,-1883,6123,-614,-13529,-4631,
521,7,27,2023,13,13,11,156,3878,-2114,5064,-1274,-14637,-5044,
522,7,27,2023,13,13,11,166,7842,-2490,4333,-1183,-15062,-5130,
523,7,27,2023,13,13,11,176,8555,-1977,4294,-778,-13882,-4932,
524,7,27,2023,13,13,11,186,7552,-2306,4260,-446,-12305,-5189,
525,7,27,2023,13,13,11,196,5476,-2518,3939,-112,-10872,-5639,
526,7,27,2023,13,13,11,206,3570,-2006,4247,-75,-10059,-6010,
527,7,27,2023,13,13,11,216,1321,-1288,5647,-608,-9886,-5883,
528,7,27,2023,13,13,11,226,3582,-628,3638,-2020,-9965,-5528,
529,7,27,2023,13,13,11,236,2011,-23,1078,-3172,-8654,-5376,
530,7,27,2023,13,13,11,246,1572,-377,2686,-3730,-7229,-5031,
531,7,27,2023,13,13,11,256,10041,-2027,5554,-5937,-5475,-3742,
532,7,27,2023,13,13,11,266,9544,-7173,5386,-6699,309,-1175,
533,7,27,2023,13,13,11,276,2418,-6806,3023,-2951,6454,670,
534,7,27,2023,13,13,11,286,1406,-5876,2100,371,8713,1791,
535,7,27,2023,13,13,11,296,1044,-4370,2092,3235,9923,1884,
536,7,27,2023,13,13,11,306,201,-2529,1949,5164,10709,1623,
537,7,27,2023,13,13,11,316,86,-913,2079,5358,10903,1309,
538,7,27,2023,13,13,11,326,30,159,2193,4064,10840,1181,
539,7,27,2023,13,13,11,336,316,370,2193,2054,10556,1366,
540,7,27,2023,13,13,11,346,640,-240,2099,183,10191,1756,
541,7,27,2023,13,13,11,356,1189,-1267,2026,-1219,9919,2151,
542,7,27,2023,13,13,11,366,1701,-2385,2087,-1739,9888,2627,
543,7,27,2023,13,13,11,376,2227,-2818,2248,-1386,10081,3132,
544,7,27,2023,13,13,11,386,2450,-2742,2415,-671,10393,3698,
545,7,27,2023,13,13,11,396,2165,-2109,2533,-71,10635,4263,
546,7,27,2023,13,13,11,406,1752,-1292,2590,-21,10524,4778,
547,7,27,2023,13,13,11,416,1507,-671,2660,-535,10008,5258,
548,7,27,2023,13,13,11,426,1630,-304,3030,-1427,9200,5694,
549,7,27,2023,13,13,11,436,2205,-586,3404,-2402,8336,6064,
550,7,27,2023,13,13,11,446,2878,-1242,3812,-3117,7755,6290,
551,7,27,2023,13,13,11,456,3443,-1880,4214,-3357,7524,6408,
552,7,27,2023,13,13,11,466,3680,-2204,4532,-3082,7534,6480,
553,7,27,2023,13,13,11,476,3732,-2140,4813,-2528,7575,6520,
554,7,27,2023,13,13,11,486,4046,-1742,5163,-2089,7470,6539,
555,7,27,2023,13,13,11,496,4732,-1422,5428,-1992,7254,6618,
556,7,27,2023,13,13,11,506,5656,-1547,5534,-2027,7053,6781,
557,7,27,2023,13,13,11,516,6644,-1628,5524,-1918,6907,6953,
558,7,27,2023,13,13,11,526,7695,-1477,5266,-1670,6836,7083,
559,7,27,2023,13,13,11,536,8509,-1147,4766,-1389,6847,7132,
560,7,27,2023,13,13,11,546,8941,-1482,3789,-970,6696,6908,
561,7,27,2023,13,13,11,556,9629,-32,2172,-126,5975,5965,
562,7,27,2023,13,13,11,566,10561,1582,1278,83,5098,4827,
563,7,27,2023,13,13,11,576,12243,2910,386,-635,4285,3671,
564,7,27,2023,13,13,11,586,12568,2766,-949,-1878,3923,2813,
565,7,27,2023,13,13,11,596,12092,2159,-2682,-2291,3460,1899,
566,7,27,2023,13,13,11,606,11324,1658,-4773,-1194,2145,711,
567,7,27,2023,13,13,11,616,11531,3251,-7693,710,-518,-1098,
568,7,27,2023,13,13,11,626,10289,5178,-9147,1827,-4207,-3260,
569,7,27,2023,13,13,11,636,-668,3188,-124,2105,-9400,-5008,
570,7,27,2023,13,13,11,646,9679,-8024,9789,1987,-12464,-5313,
571,7,27,2023,13,13,11,656,8924,-11437,8406,3671,-7871,-4806,
572,7,27,2023,13,13,11,666,7980,-1266,4534,4058,-3565,-3513,
573,7,27,2023,13,13,11,676,4952,2652,3642,2812,-2921,-2273,
574,7,27,2023,13,13,11,686,6225,2585,6297,3019,-2075,-2416,
575,7,27,2023,13,13,11,696,5388,2676,4978,2228,-132,-1443,
576,7,27,2023,13,13,11,706,1988,-996,4396,1167,282,-676,
577,7,27,2023,13,13,11,716,2189,-2282,4300,770,-78,-396,
578,7,27,2023,13,13,11,726,2357,-1518,3916,777,166,-648,
579,7,27,2023,13,13,11,736,2004,-190,3263,520,180,-539,
580,7,27,2023,13,13,11,746,742,-1229,3822,257,27,-495,
581,7,27,2023,13,13,11,756,3178,-1585,3053,280,-122,-558,
582,7,27,2023,13,13,11,766,118,-1960,4876,403,230,-606,
583,7,27,2023,13,13,11,776,3763,-880,2653,399,-73,-632,
584,7,27,2023,13,13,11,786,-22,-1522,4336,401,96,-625,
585,7,27,2023,13,13,11,796,3159,-856,2880,490,-159,-571,
586,7,27,2023,13,13,11,806,1371,-1152,4106,413,5,-406,
587,7,27,2023,13,13,11,816,1942,-815,3755,345,-200,-339,
588,7,27,2023,13,13,11,826,2036,-863,3961,168,-374,-263,
589,7,27,2023,13,13,11,836,2407,-575,3659,102,-520,-318,
590,7,27,2023,13,13,11,846,1849,-874,4016,-14,-640,-270,
591,7,27,2023,13,13,11,856,2312,-987,3204,-121,-668,-185,
592,7,27,2023,13,13,11,866,929,-757,4243,-122,-899,-329,
593,7,27,2023,13,13,11,876,3116,-932,2758,-304,-991,-190,
594,7,27,2023,13,13,11,886,865,-956,4245,-260,-994,-305,
595,7,27,2023,13,13,11,896,2843,-924,3107,-406,-1015,-140,
596,7,27,2023,13,13,11,916,1851,-821,3308,-558,-1069,-139,
597,7,27,2023,13,13,11,926,2333,-768,3381,-666,-1156,-102,
598,7,27,2023,13,13,11,936,1865,-1213,3281,-682,-1090,-31,
599,7,27,2023,13,13,11,946,2652,-1102,2959,-578,-1176,-163,
600,7,27,2023,13,13,11,956,2502,-1158,2939,-507,-1173,-173,
601,7,27,2023,13,13,11,966,2695,-981,2906,-470,-1212,-250,
602,7,27,2023,13,13,11,976,2052,-1286,3161,-423,-1131,-219,
603,7,27,2023,13,13,11,986,2640,-1220,3012,-294,-1103,-331,
604,7,27,2023,13,13,11,996,2154,-1125,3184,-183,-980,-298,
605,7,27,2023,13,13,12,6,2383,-1237,3079,-121,-1079,-504,
606,7,27,2023,13,13,12,16,2004,-1156,3224,-33,-843,-306,
607,7,27,2023,13,13,12,26,2822,-1442,3021,-8,-1077,-719,
608,7,27,2023,13,13,12,36,2452,-662,3187,80,-827,-386,
609,7,27,2023,13,13,12,46,1883,-1468,3244,10,-961,-650,
610,7,27,2023,13,13,12,56,2631,-816,3241,119,-976,-508,
611,7,27,2023,13,13,12,66,2628,-1073,3023,80,-1100,-651,
612,7,27,2023,13,13,12,76,3048,-840,2891,144,-1238,-712,
613,7,27,2023,13,13,12,86,2525,-688,3318,136,-1454,-742,
614,7,27,2023,13,13,12,96,2801,-451,3004,116,-1491,-636,
615,7,27,2023,13,13,12,106,1796,-1335,3797,70,-1876,-735,
616,7,27,2023,13,13,12,116,3310,-361,3221,100,-1968,-622,
617,7,27,2023,13,13,12,126,1447,-1457,3929,149,-2293,-682,
618,7,27,2023,13,13,12,136,2690,-1334,3689,151,-2633,-789,
619,7,27,2023,13,13,12,146,2157,-1199,3870,241,-3159,-915,
620,7,27,2023,13,13,12,156,2256,-1376,3863,174,-3662,-1037,
621,7,27,2023,13,13,12,166,2132,-1271,4183,258,-4260,-1204,
622,7,27,2023,13,13,12,176,2597,-905,3704,229,-4932,-1333,
623,7,27,2023,13,13,12,186,2376,-547,3582,244,-5840,-1491,
624,7,27,2023,13,13,12,196,2010,-354,3820,109,-7012,-1711,
625,7,27,2023,13,13,12,206,1320,-231,4364,-121,-8198,-1880,
626,7,27,2023,13,13,12,216,1938,-1519,5118,-551,-9610,-2176,
627,7,27,2023,13,13,12,226,2750,-1110,4374,-1104,-11097,-2307,
628,7,27,2023,13,13,12,236,1686,-2539,6610,-1600,-12896,-2640,
629,7,27,2023,13,13,12,246,3351,-2704,4681,-2250,-14420,-3095,
630,7,27,2023,13,13,12,256,2756,-3536,5516,-2627,-15228,-3530,
631,7,27,2023,13,13,12,266,9322,-2517,5146,-2662,-15970,-4191,
632,7,27,2023,13,13,12,276,7657,-2848,4084,-3155,-14604,-4301,
633,7,27,2023,13,13,12,286,8693,-2005,5150,-3141,-13586,-4963,
634,7,27,2023,13,13,12,296,5089,-1841,4273,-3474,-12014,-5452,
635,7,27,2023,13,13,12,306,4142,-3873,4366,-3480,-11533,-6492,
636,7,27,2023,13,13,12,316,4996,-4269,5511,-3439,-10936,-6658,
637,7,27,2023,13,13,12,326,3920,-3580,5480,-4133,-10155,-7119,
638,7,27,2023,13,13,12,336,4937,-2222,3587,-5468,-8246,-6764,
639,7,27,2023,13,13,12,346,1066,-980,3377,-6021,-6201,-6758,
640,7,27,2023,13,13,12,356,10811,-4914,5243,-7674,-4699,-6369,
641,7,27,2023,13,13,12,366,7952,-7440,5472,-6891,1140,-4778,
642,7,27,2023,13,13,12,376,2333,-6509,3083,-3507,6331,-2555,
643,7,27,2023,13,13,12,386,1908,-6024,2537,-401,8250,-892,
644,7,27,2023,13,13,12,396,1874,-5051,2615,1901,9603,-274,
645,7,27,2023,13,13,12,406,1076,-3768,2281,3477,10812,181,
646,7,27,2023,13,13,12,416,1054,-2608,2198,4309,11407,534,
647,7,27,2023,13,13,12,426,786,-1667,2154,4106,11720,872,
648,7,27,2023,13,13,12,436,67,-914,2046,3075,11656,1309,
649,7,27,2023,13,13,12,446,-197,-750,1972,1719,11032,1864,
650,7,27,2023,13,13,12,456,32,-1066,1947,482,10140,2526,
651,7,27,2023,13,13,12,466,644,-1567,2125,-457,9240,3359,
652,7,27,2023,13,13,12,476,1607,-2325,2312,-946,8644,4329,
653,7,27,2023,13,13,12,486,2310,-2772,2553,-816,8512,5374,
654,7,27,2023,13,13,12,496,2801,-2771,2883,-315,8681,6468,
655,7,27,2023,13,13,12,506,3009,-2286,3178,202,9035,7499,
656,7,27,2023,13,13,12,516,3070,-2015,3304,404,9381,8366,
657,7,27,2023,13,13,12,526,3123,-1548,3464,481,9556,8958,
658,7,27,2023,13,13,12,536,3271,-1617,3474,315,9572,9284,
659,7,27,2023,13,13,12,546,3399,-1073,3682,415,9481,9447,
660,7,27,2023,13,13,12,556,3714,-325,4495,-263,9314,9320,
661,7,27,2023,13,13,12,566,3899,-1085,4729,-1605,9301,9093,
662,7,27,2023,13,13,12,576,4104,-2009,4888,-2408,9306,8680,
663,7,27,2023,13,13,12,586,4459,-2688,5205,-2617,9314,8177,
664,7,27,2023,13,13,12,596,5205,-3192,5633,-2394,9389,7692,
665,7,27,2023,13,13,12,606,6315,-3850,5899,-2068,9584,7258,
666,7,27,2023,13,13,12,616,7519,-3986,5975,-1691,9889,6869,
667,7,27,2023,13,13,12,626,7878,-1079,6277,-1498,10138,6641,
668,7,27,2023,13,13,12,636,8628,42,5909,-2529,10096,6802,
669,7,27,2023,13,13,12,646,9656,-437,4990,-4252,10011,6801,
670,7,27,2023,13,13,12,656,10565,-659,3720,-5439,9682,6281,
671,7,27,2023,13,13,12,666,11575,-366,2346,-6003,9221,5516,
672,7,27,2023,13,13,12,676,12471,15,641,-6034,8690,4672,
673,7,27,2023,13,13,12,686,12899,383,-1507,-5533,7938,3655,
674,7,27,2023,13,13,12,696,13069,1343,-3290,-4417,6748,2429,
675,7,27,2023,13,13,12,706,13131,2110,-4527,-2884,4884,1468,
676,7,27,2023,13,13,12,716,12741,2609,-5275,-469,2395,824,
677,7,27,2023,13,13,12,726,12417,3401,-5218,2335,-544,334,
678,7,27,2023,13,13,12,736,11746,3281,-4585,4746,-3848,-606,
679,7,27,2023,13,13,12,746,2831,2815,-1629,5578,-7536,-2983,
680,7,27,2023,13,13,12,756,-1412,-4097,8207,5242,-8997,-4881,
681,7,27,2023,13,13,12,776,2484,-435,4400,3338,-8100,-6601,
682,7,27,2023,13,13,12,786,5123,-2458,3209,2805,-10072,-5756,
683,7,27,2023,13,13,12,796,10728,-5559,6772,4540,-10264,-4851,
684,7,27,2023,13,13,12,806,12461,755,6505,5272,-6730,-3995,
685,7,27,2023,13,13,12,816,8943,4733,5473,3202,-4257,-2556,
686,7,27,2023,13,13,12,826,5120,300,5873,2027,-3184,-1824,
687,7,27,2023,13,13,12,836,1909,-1465,5590,1797,-1411,-1348,
688,7,27,2023,13,13,12,846,2786,-909,4961,1062,-1280,-883,
689,7,27,2023,13,13,12,856,3183,55,4524,525,-994,-530,
690,7,27,2023,13,13,12,866,673,-889,5588,0,-731,-537,
691,7,27,2023,13,13,12,876,2624,-1216,2478,-531,-781,-216,
692,7,27,2023,13,13,12,886,1145,-1956,4131,-556,-959,-271,
693,7,27,2023,13,13,12,896,2699,-1731,3284,-573,-936,-171,
694,7,27,2023,13,13,12,906,2282,-1708,3054,-622,-804,-159,
695,7,27,2023,13,13,12,916,2833,-2005,2998,-490,-784,-127,
696,7,27,2023,13,13,12,926,1557,-1674,3621,-267,-656,-267,
697,7,27,2023,13,13,12,936,2642,-1226,2720,-192,-644,-207,
698,7,27,2023,13,13,12,946,996,-1529,3793,-55,-532,-268,
699,7,27,2023,13,13,12,956,3219,-1157,3249,-75,-702,-265,
700,7,27,2023,13,13,12,966,1075,-1292,3450,-58,-465,-109,
701,7,27,2023,13,13,12,976,2095,-1262,3361,-92,-600,-269,
702,7,27,2023,13,13,12,986,1959,-1428,3509,-143,-657,-142,
703,7,27,2023,13,13,12,996,1773,-1201,3393,-86,-677,-198,
704,7,27,2023,13,13,13,6,2099,-1157,3206,-127,-682,-136,
705,7,27,2023,13,13,13,16,2693,-970,3034,-144,-731,-250,
706,7,27,2023,13,13,13,26,2912,-979,2787,-248,-731,-163,
707,7,27,2023,13,13,13,36,2256,-1237,3125,-330,-773,-154,
708,7,27,2023,13,13,13,46,2242,-1429,2988,-430,-770,-141,
709,7,27,2023,13,13,13,56,2419,-1350,2763,-374,-696,-155,
710,7,27,2023,13,13,13,66,877,-1815,3298,-306,-716,-382,
711,7,27,2023,13,13,13,76,3647,-1398,2760,-336,-566,-358,
712,7,27,2023,13,13,13,86,3530,-1973,2392,-97,-748,-431,
713,7,27,2023,13,13,13,96,624,-1720,3338,61,3,-218,
714,7,27,2023,13,13,13,106,1962,-1438,3030,170,-436,-560,
715,7,27,2023,13,13,13,116,2680,-1864,2538,188,-460,-810,
716,7,27,2023,13,13,13,126,3610,-1052,2509,392,-519,-884,
717,7,27,2023,13,13,13,136,2333,-1176,3080,437,-492,-841,
718,7,27,2023,13,13,13,146,2684,-992,2895,438,-397,-699,
719,7,27,2023,13,13,13,156,2483,-1116,3242,409,-453,-676,
720,7,27,2023,13,13,13,166,1982,-1294,3495,299,-557,-752,
721,7,27,2023,13,13,13,176,2256,-480,3448,259,-605,-459,
722,7,27,2023,13,13,13,186,2238,-1140,3402,19,-977,-534,
723,7,27,2023,13,13,13,196,2288,-972,3599,-44,-1218,-371,
724,7,27,2023,13,13,13,206,1892,-930,3840,-144,-1573,-355,
725,7,27,2023,13,13,13,216,2635,-956,3639,-273,-2061,-461,
726,7,27,2023,13,13,13,226,3040,-971,3686,-335,-2663,-563,
727,7,27,2023,13,13,13,236,2013,-1390,4298,-337,-3364,-704,
728,7,27,2023,13,13,13,246,1961,-1191,4394,-358,-4084,-772,
729,7,27,2023,13,13,13,256,2458,-1186,4026,-518,-4908,-923,
730,7,27,2023,13,13,13,266,1012,-1934,4898,-591,-5865,-1138,
731,7,27,2023,13,13,13,276,2986,-599,3483,-681,-6563,-1158,
732,7,27,2023,13,13,13,286,1069,-606,4025,-666,-7643,-1324,
733,7,27,2023,13,13,13,296,1307,-1163,4230,-1202,-8989,-1488,
734,7,27,2023,13,13,13,306,661,-786,4155,-1515,-10302,-1612,
735,7,27,2023,13,13,13,316,2892,-2054,4122,-2055,-12312,-1883,
736,7,27,2023,13,13,13,326,3298,-2506,5191,-2563,-14132,-2185,
737,7,27,2023,13,13,13,336,877,-1598,4757,-3262,-15360,-2564,
738,7,27,2023,13,13,13,346,2823,-1483,6089,-3946,-17075,-3022,
739,7,27,2023,13,13,13,356,6839,-2763,5914,-4116,-18125,-3070,
740,7,27,2023,13,13,13,366,6221,-2582,3963,-3805,-17449,-2945,
741,7,27,2023,13,13,13,376,10081,-4207,4557,-3812,-16907,-3538,
742,7,27,2023,13,13,13,386,6053,-3663,3968,-3486,-15173,-4085,
743,7,27,2023,13,13,13,396,5228,-3615,4759,-2739,-14356,-5112,
744,7,27,2023,13,13,13,406,4113,-3922,5345,-2445,-13926,-5642,
745,7,27,2023,13,13,13,416,6951,-2643,4782,-3358,-13243,-5825,
746,7,27,2023,13,13,13,426,6051,-2878,4469,-5303,-11027,-5205,
747,7,27,2023,13,13,13,436,2798,-2709,3487,-7733,-8767,-4478,
748,7,27,2023,13,13,13,446,4893,-4306,2861,-8816,-7252,-5354,
749,7,27,2023,13,13,13,456,14783,-9541,4732,-7800,-3634,-5423,
750,7,27,2023,13,13,13,466,6305,-8489,4668,-2665,4440,-3560,
751,7,27,2023,13,13,13,476,2212,-5517,2768,2022,9343,-1261,
752,7,27,2023,13,13,13,486,2890,-4426,2640,4515,10883,-680,
753,7,27,2023,13,13,13,496,2701,-3773,2556,5525,12372,-1098,
754,7,27,2023,13,13,13,506,2214,-2795,2064,5782,13725,-1340,
755,7,27,2023,13,13,13,516,2331,-2319,1978,5504,14715,-1557,
756,7,27,2023,13,13,13,526,1901,-1973,1971,4745,15643,-1713,
757,7,27,2023,13,13,13,536,1099,-1587,1900,3526,16141,-1793,
758,7,27,2023,13,13,13,546,353,-1671,1764,2043,15940,-1828,
759,7,27,2023,13,13,13,556,-117,-2062,1620,718,15113,-1792,
760,7,27,2023,13,13,13,566,302,-2910,1691,-205,13965,-1465,
761,7,27,2023,13,13,13,576,1419,-4018,2035,-564,13025,-730,
762,7,27,2023,13,13,13,586,2341,-4393,2383,-233,12582,446,
763,7,27,2023,13,13,13,596,2597,-3832,2570,321,12543,2089,
764,7,27,2023,13,13,13,606,2187,-2895,2819,405,12530,3871,
765,7,27,2023,13,13,13,616,1816,-2288,2889,-234,12100,5475,
766,7,27,2023,13,13,13,636,1981,-1518,3154,-2157,10477,7796,
767,7,27,2023,13,13,13,646,2825,-1428,3810,-3326,9698,8500,
768,7,27,2023,13,13,13,656,3515,-2102,4125,-4313,9259,8943,
769,7,27,2023,13,13,13,666,4223,-2679,4611,-4650,9130,9177,
770,7,27,2023,13,13,13,676,4904,-3292,5170,-4516,9301,9259,
771,7,27,2023,13,13,13,686,5511,-3811,5807,-3998,9721,9236,
772,7,27,2023,13,13,13,696,6444,-4257,6325,-3345,10200,9147,
773,7,27,2023,13,13,13,706,7586,-4570,6627,-2724,10747,9040,
774,7,27,2023,13,13,13,716,8348,-3206,6724,-2278,11245,8878,
775,7,27,2023,13,13,13,726,8010,2660,6762,-2719,11171,8928,
776,7,27,2023,13,13,13,736,9833,2103,5617,-5327,10559,9213,
777,7,27,2023,13,13,13,746,11231,-1094,4078,-7323,9838,8336,
778,7,27,2023,13,13,13,756,13109,-834,1723,-6390,8591,6313,
779,7,27,2023,13,13,13,766,14817,-127,243,-4415,7992,4253,
780,7,27,2023,13,13,13,776,15602,538,-2026,-2381,7539,1748,
781,7,27,2023,13,13,13,786,15517,2131,-4533,-716,6374,-842,
782,7,27,2023,13,13,13,796,15386,3764,-5528,522,3995,-2569,
783,7,27,2023,13,13,13,806,16083,4336,-7274,2547,143,-2988,
784,7,27,2023,13,13,13,816,17835,5750,-9608,4688,-4646,-2863,
785,7,27,2023,13,13,13,826,1776,4694,-1919,5287,-9984,-3730,
786,7,27,2023,13,13,13,836,1386,-2527,13411,3942,-14280,-4764,
787,7,27,2023,13,13,13,846,6336,-3771,11388,2350,-11966,-5456,
788,7,27,2023,13,13,13,856,5475,255,4123,2848,-9731,-6033,
789,7,27,2023,13,13,13,866,10336,-4477,6334,3256,-10746,-5748,
790,7,27,2023,13,13,13,876,14420,-3012,7054,4074,-8339,-4994,
791,7,27,2023,13,13,13,886,9328,3494,4467,3042,-4589,-3704,
792,7,27,2023,13,13,13,896,3021,669,4326,1934,-3149,-2537,
793,7,27,2023,13,13,13,906,562,-3517,4079,2315,-1411,-2480,
794,7,27,2023,13,13,13,916,3964,-2507,4194,2804,-468,-2517,
795,7,27,2023,13,13,13,926,4381,970,4187,2719,541,-1911,
796,7,27,2023,13,13,13,936,3031,1902,4593,2012,1074,-1420,
797,7,27,2023,13,13,13,946,1639,-1627,4628,1224,930,-1061,
798,7,27,2023,13,13,13,956,1094,-2086,4451,839,476,-820,
799,7,27,2023,13,13,13,966,2409,-311,3998,580,98,-686,
800,7,27,2023,13,13,13,976,1003,-710,4772,284,-23,-539,
801,7,27,2023,13,13,13,986,2765,-178,3807,11,-323,-368,
802,7,27,2023,13,13,13,996,1052,-1719,3339,-105,-304,-170,
803,7,27,2023,13,13,14,6,1705,-1426,3857,16,-377,-241,
804,7,27,2023,13,13,14,16,2138,-1177,3482,60,-329,-223,
805,7,27,2023,13,13,14,26,3350,-949,2756,190,-287,-402,
806,7,27,2023,13,13,14,36,2131,-1063,3289,186,-131,-306,
807,7,27,2023,13,13,14,46,1745,-875,3673,185,-206,-292,
808,7,27,2023,13,13,14,56,1090,-1538,3023,138,-297,-309,
809,7,27,2023,13,13,14,66,1073,-1820,3440,182,-561,-506,
810,7,27,2023,13,13,14,76,2900,-811,3456,237,-782,-604,
811,7,27,2023,13,13,14,86,1416,-816,3556,141,-730,-570,
812,7,27,2023,13,13,14,96,1860,-428,3664,64,-999,-571,
813,7,27,2023,13,13,14,106,2749,-488,3252,-135,-1079,-559,
814,7,27,2023,13,13,14,116,2920,-247,3091,-232,-1318,-580,
815,7,27,2023,13,13,14,126,1940,-953,3547,-373,-1504,-612,
816,7,27,2023,13,13,14,136,1915,-1126,3520,-261,-1685,-625,
817,7,27,2023,13,13,14,146,1925,-721,3594,-209,-1797,-653,
818,7,27,2023,13,13,14,156,2239,-1266,3304,-269,-1928,-705,
819,7,27,2023,13,13,14,166,1791,-1597,3705,-232,-2121,-968,
820,7,27,2023,13,13,14,176,2560,-563,3423,-90,-1988,-874,
821,7,27,2023,13,13,14,186,1978,-1559,3121,-110,-2069,-957,
822,7,27,2023,13,13,14,196,3280,-750,2864,82,-2350,-1111,
823,7,27,2023,13,13,14,206,3148,-359,3186,168,-2637,-1199,
824,7,27,2023,13,13,14,216,2564,-281,3251,200,-2819,-1096,
825,7,27,2023,13,13,14,226,2356,-1013,3523,195,-3154,-1084,
826,7,27,2023,13,13,14,236,1759,-1032,4160,268,-3452,-1135,
827,7,27,2023,13,13,14,246,2071,-415,3929,249,-3719,-1104,
828,7,27,2023,13,13,14,256,1966,-1036,4251,264,-4415,-1148,
829,7,27,2023,13,13,14,266,2013,-1140,4294,432,-5133,-1234,
830,7,27,2023,13,13,14,276,2699,-663,3781,535,-6058,-1375,
831,7,27,2023,13,13,14,286,3133,-397,3618,630,-7277,-1616,
832,7,27,2023,13,13,14,296,2307,-240,4102,695,-8446,-1777,
833,7,27,2023,13,13,14,306,1287,-287,4208,605,-9548,-1961,
834,7,27,2023,13,13,14,316,1738,-783,4397,301,-10877,-2354,
835,7,27,2023,13,13,14,326,563,-100,3504,-202,-12204,-2661,
836,7,27,2023,13,13,14,336,789,-1113,5209,-907,-13981,-3079,
837,7,27,2023,13,13,14,346,5376,-2035,5140,-1708,-15613,-3219,
838,7,27,2023,13,13,14,356,5292,-2498,3754,-2284,-16348,-3213,
839,7,27,2023,13,13,14,366,7205,-3087,4879,-2371,-17443,-3822,
840,7,27,2023,13,13,14,376,8797,-4082,5355,-2404,-17324,-4423,
841,7,27,2023,13,13,14,386,9372,-3976,6554,-1974,-16196,-5218,
842,7,27,2023,13,13,14,396,5471,-3524,5634,-1603,-14655,-6076,
843,7,27,2023,13,13,14,406,5097,-2165,6557,-1308,-14120,-6836,
844,7,27,2023,13,13,14,416,6260,-1411,6993,-1939,-13518,-7180,
845,7,27,2023,13,13,14,426,6922,-627,5988,-4591,-11749,-6358,
846,7,27,2023,13,13,14,436,4283,-1697,3749,-8035,-9638,-5327,
847,7,27,2023,13,13,14,446,7529,-4670,4172,-9673,-8289,-5571,
848,7,27,2023,13,13,14,456,16327,-10036,6831,-10167,-3972,-4307,
849,7,27,2023,13,13,14,466,9698,-10804,7069,-5110,5245,-2189,
850,7,27,2023,13,13,14,476,1670,-7764,4142,428,11226,275,
851,7,27,2023,13,13,14,496,2260,-4174,3621,5197,12825,715,
852,7,27,2023,13,13,14,506,1271,-2250,3164,5520,13727,695,
853,7,27,2023,13,13,14,516,977,-835,2971,4480,13983,789,
854,7,27,2023,13,13,14,526,222,-196,2665,2269,13957,1103,
855,7,27,2023,13,13,14,536,-464,-245,2277,-39,13314,1722,
856,7,27,2023,13,13,14,546,187,-1067,1974,-1630,12097,2441,
857,7,27,2023,13,13,14,556,1068,-2109,1806,-2418,11122,3029,
858,7,27,2023,13,13,14,566,1932,-2677,1893,-2358,10512,3600,
859,7,27,2023,13,13,14,576,2767,-2852,2231,-1756,10348,4352,
860,7,27,2023,13,13,14,586,3007,-2577,2441,-1038,10527,5265,
861,7,27,2023,13,13,14,596,2718,-2212,2636,-487,10678,6176,
862,7,27,2023,13,13,14,606,2456,-1751,2828,-268,10576,6937,
863,7,27,2023,13,13,14,616,2325,-1376,2967,-466,10251,7520,
864,7,27,2023,13,13,14,626,2662,-1194,3293,-901,9797,7953,
865,7,27,2023,13,13,14,636,3341,-1537,3416,-1185,9366,8258,
866,7,27,2023,13,13,14,646,4158,-324,4401,-1576,9054,8423,
867,7,27,2023,13,13,14,656,4457,-1181,4736,-2975,9193,8482,
868,7,27,2023,13,13,14,666,4951,-2317,4730,-3676,9420,8472,
869,7,27,2023,13,13,14,676,5912,-2425,4695,-3580,9639,8273,
870,7,27,2023,13,13,14,686,7156,-1713,4563,-3246,9915,8108,
871,7,27,2023,13,13,14,696,8197,-1772,4244,-3135,10171,7995,
872,7,27,2023,13,13,14,706,8743,-1660,4080,-2906,10210,7863,
873,7,27,2023,13,13,14,716,9318,-506,4144,-2495,9800,7728,
874,7,27,2023,13,13,14,726,10297,966,3922,-2593,9182,7593,
875,7,27,2023,13,13,14,736,11225,1399,3083,-3428,8611,7230,
876,7,27,2023,13,13,14,746,12043,720,1725,-4263,8077,6382,
877,7,27,2023,13,13,14,756,12721,-82,-31,-4405,7399,5010,
878,7,27,2023,13,13,14,766,12897,-77,-1807,-3469,6334,3190,
879,7,27,2023,13,13,14,776,13070,2570,-3094,-1988,4620,1291,
880,7,27,2023,13,13,14,786,13271,4857,-3633,-1466,2646,-26,
881,7,27,2023,13,13,14,796,12880,3397,-4345,-1259,452,-799,
882,7,27,2023,13,13,14,806,14645,2399,-6716,1796,-2725,-1728,
883,7,27,2023,13,13,14,816,17829,6193,-8718,5312,-6023,-3448,
884,7,27,2023,13,13,14,826,6671,8805,-1711,5989,-9457,-6236,
885,7,27,2023,13,13,14,836,15515,-1750,11503,3937,-12645,-7723,
886,7,27,2023,13,13,14,846,14733,-7954,11216,4272,-8130,-6921,
887,7,27,2023,13,13,14,856,5572,-3850,5755,5406,-4152,-4703,
888,7,27,2023,13,13,14,866,119,-2605,5918,3613,-5553,-2975,
889,7,27,2023,13,13,14,876,1941,-1584,6220,2134,-5942,-2440,
890,7,27,2023,13,13,14,886,1034,2336,2100,2476,-3362,-3520,
891,7,27,2023,13,13,14,896,6783,1606,284,3153,-1303,-4307,
892,7,27,2023,13,13,14,906,7969,65,947,2783,770,-2981,
893,7,27,2023,13,13,14,916,3823,745,5528,2661,1751,-1963,
894,7,27,2023,13,13,14,926,576,-409,7611,2436,2037,-1679,
895,7,27,2023,13,13,14,936,732,-761,6470,1575,753,-1382,
896,7,27,2023,13,13,14,946,1194,-716,4785,783,-506,-1271,
897,7,27,2023,13,13,14,956,1548,-1194,4021,525,-957,-1284,
898,7,27,2023,13,13,14,966,2324,-1903,3319,442,-849,-1100,
899,7,27,2023,13,13,14,976,2896,-150,3737,529,-680,-1256,
900,7,27,2023,13,13,14,986,3041,800,3860,232,-1065,-1131,
901,7,27,2023,13,13,14,996,2243,-75,3975,-44,-1551,-838,
902,7,27,2023,13,13,15,6,1882,-582,4698,-201,-1905,-660,
903,7,27,2023,13,13,15,16,1611,-779,5043,-395,-2308,-458,
904,7,27,2023,13,13,15,26,1843,-1183,5034,-504,-2791,-367,
905,7,27,2023,13,13,15,36,1731,-1683,5266,-633,-3508,-504,
906,7,27,2023,13,13,15,46,1736,-1172,5357,-576,-4344,-543,
907,7,27,2023,13,13,15,56,2792,-1062,4786,-652,-5336,-743,
908,7,27,2023,13,13,15,66,2814,-763,4645,-436,-6422,-1077,
909,7,27,2023,13,13,15,76,1787,-837,4620,-411,-7367,-1274,
910,7,27,2023,13,13,15,86,1408,-1223,4240,-288,-8280,-1484,
911,7,27,2023,13,13,15,96,1074,-1106,4624,409,-9576,-1820,
912,7,27,2023,13,13,15,106,2115,-639,4920,482,-10712,-2273,
913,7,27,2023,13,13,15,116,1255,-359,4440,85,-11539,-2382,
914,7,27,2023,13,13,15,126,2333,-371,3973,-377,-12401,-2500,
915,7,27,2023,13,13,15,136,4158,146,2709,-908,-13349,-2497,
916,7,27,2023,13,13,15,146,4685,109,2591,-1499,-13814,-2380,
917,7,27,2023,13,13,15,156,5431,28,2922,-2010,-13729,-2006,
918,7,27,2023,13,13,15,166,4900,-543,2744,-2644,-12930,-1508,
919,7,27,2023,13,13,15,176,5680,-672,2453,-2799,-11812,-1263,
920,7,27,2023,13,13,15,186,5748,-781,2186,-2830,-10734,-1245,
921,7,27,2023,13,13,15,196,4618,-874,1961,-3087,-9552,-1214,
922,7,27,2023,13,13,15,206,4313,-883,1405,-3284,-8679,-1629,
923,7,27,2023,13,13,15,216,3785,-842,761,-3335,-7981,-2004,
924,7,27,2023,13,13,15,226,2296,1050,352,-3269,-7195,-2308,
925,7,27,2023,13,13,15,236,2262,1440,1150,-4120,-7409,-1922,
926,7,27,2023,13,13,15,246,3739,681,2528,-5716,-7464,-1450,
927,7,27,2023,13,13,15,256,4361,-813,2777,-7067,-6838,-1349,
928,7,27,2023,13,13,15,266,9431,-3479,4252,-6965,-5643,-1865,
929,7,27,2023,13,13,15,276,6397,-4538,4724,-5065,-2520,-1642,
930,7,27,2023,13,13,15,286,4678,-4457,4525,-2455,-263,-1425,
931,7,27,2023,13,13,15,296,4477,-3499,5086,39,828,-1524,
932,7,27,2023,13,13,15,306,3572,-3053,5423,1653,1675,-1988,
933,7,27,2023,13,13,15,316,3401,-3454,5874,2365,2092,-2883,
934,7,27,2023,13,13,15,326,3432,-4158,6307,2909,2160,-4065,
935,7,27,2023,13,13,15,336,3724,-4224,6755,3402,2165,-5579,
936,7,27,2023,13,13,15,356,4464,-4785,7365,2675,3211,-8141,
937,7,27,2023,13,13,15,366,4691,-5615,7133,2385,4207,-8772,
938,7,27,2023,13,13,15,376,4987,-6701,6700,2288,5553,-8973,
939,7,27,2023,13,13,15,386,4818,-7383,5947,2644,7176,-8505,
940,7,27,2023,13,13,15,396,4157,-7239,4740,3880,8830,-7345,
941,7,27,2023,13,13,15,406,3081,-6162,3897,5222,10040,-5749,
942,7,27,2023,13,13,15,416,2209,-5219,3277,5906,10689,-3935,
943,7,27,2023,13,13,15,426,1430,-4316,2874,5892,10815,-2146,
944,7,27,2023,13,13,15,436,1161,-3085,2923,5105,10506,-276,
945,7,27,2023,13,13,15,446,1596,-1993,3034,3225,10045,1761,
946,7,27,2023,13,13,15,456,2053,-1846,2845,582,9731,3800,
947,7,27,2023,13,13,15,466,2157,-2665,2673,-1851,9536,5494,
948,7,27,2023,13,13,15,476,2663,-3496,2808,-3313,9391,6701,
949,7,27,2023,13,13,15,486,3103,-3684,3172,-3812,9470,7541,
950,7,27,2023,13,13,15,496,3561,-3326,3715,-3868,9816,8067,
951,7,27,2023,13,13,15,506,3924,-2844,4172,-4017,10372,8378,
952,7,27,2023,13,13,15,516,3839,-2714,4487,-4362,10956,8559,
953,7,27,2023,13,13,15,526,3659,-2734,4980,-4654,11286,8661,
954,7,27,2023,13,13,15,536,3671,-2440,5778,-4833,11383,8764,
955,7,27,2023,13,13,15,546,4125,-2185,6515,-5188,11460,8914,
956,7,27,2023,13,13,15,556,4917,-2896,7028,-5786,11690,9100,
957,7,27,2023,13,13,15,566,5317,-4116,7432,-5941,11930,9370,
958,7,27,2023,13,13,15,576,6545,-4340,7985,-5410,11926,9651,
959,7,27,2023,13,13,15,586,8351,-2158,7768,-5064,11849,10032,
960,7,27,2023,13,13,15,596,9414,857,6611,-5718,11557,10684,
961,7,27,2023,13,13,15,606,11392,-1251,5073,-6998,11074,11129,
962,7,27,2023,13,13,15,616,12665,-1232,3433,-6744,10396,10702,
963,7,27,2023,13,13,15,626,12778,1452,2280,-5344,9457,9925,
964,7,27,2023,13,13,15,636,14008,2503,971,-4614,8193,8777,
965,7,27,2023,13,13,15,646,16218,2018,-1614,-4368,6965,6894,
966,7,27,2023,13,13,15,656,17386,3110,-4162,-3567,6002,4369,
967,7,27,2023,13,13,15,666,16523,5618,-5640,-2645,4707,1918,
968,7,27,2023,13,13,15,676,14546,5849,-5989,-2256,2810,-34,
969,7,27,2023,13,13,15,686,12552,3575,-5361,-1454,662,-1392,
970,7,27,2023,13,13,15,696,11728,1586,-5732,1170,-1800,-2530,
971,7,27,2023,13,13,15,706,19244,2864,-11696,5244,-5576,-4775,
972,7,27,2023,13,13,15,716,5494,6874,-8287,7159,-10545,-9798,
973,7,27,2023,13,13,15,726,16845,-1328,9262,5364,-17065,-12274,
974,7,27,2023,13,13,15,736,21015,-15177,11351,6664,-14964,-8855,
975,7,27,2023,13,13,15,746,11133,-1984,10289,6287,-10185,-6780,
976,7,27,2023,13,13,15,756,17578,4473,14643,4916,-6567,-4695,
977,7,27,2023,13,13,15,766,4670,3843,7160,5186,444,-4096,
978,7,27,2023,13,13,15,776,2668,-363,2051,2535,1619,-2622,
979,7,27,2023,13,13,15,786,1871,2879,2003,1286,289,-1368,
980,7,27,2023,13,13,15,796,982,95,2524,1115,487,-1098,
981,7,27,2023,13,13,15,806,1884,-4186,4083,1213,1000,-597,
982,7,27,2023,13,13,15,816,2873,-1717,5759,1323,948,-812,
983,7,27,2023,13,13,15,826,2510,-24,6093,762,-121,-1094,
984,7,27,2023,13,13,15,836,2327,714,5241,117,-1023,-875,
985,7,27,2023,13,13,15,846,2039,-1502,3760,-362,-1423,-562,
986,7,27,2023,13,13,15,856,1118,-1987,3285,-410,-1414,-386,
987,7,27,2023,13,13,15,866,1496,-874,3853,-281,-1440,-471,
988,7,27,2023,13,13,15,876,1690,-1722,4220,-257,-1524,-464,
989,7,27,2023,13,13,15,886,3679,-1682,4119,-152,-1755,-604,
990,7,27,2023,13,13,15,896,3371,-1041,4560,-178,-2228,-836,
991,7,27,2023,13,13,15,906,1431,-879,4917,-343,-2764,-877,
992,7,27,2023,13,13,15,916,1423,-951,5077,-548,-3580,-989,
993,7,27,2023,13,13,15,926,1518,-699,5358,-594,-4514,-940,
994,7,27,2023,13,13,15,936,955,-1673,5792,-685,-5754,-1116,
995,7,27,2023,13,13,15,946,1288,-2164,5457,-512,-6705,-1142,
996,7,27,2023,13,13,15,956,1763,-2120,4212,-51,-7722,-1598,
997,7,27,2023,13,13,15,966,2050,-1676,4118,671,-9478,-2229,
998,7,27,2023,13,13,15,976,1958,-1024,4038,861,-10825,-2766,
999,7,27,2023,13,13,15,986,1220,-1016,3945,596,-11724,-3214,
1000,7,27,2023,13,13,15,996,1721,-241,3658,183,-12437,-3337,
1001,7,27,2023,13,13,16,6,3073,-569,3734,-480,-13039,-3345,
1002,7,27,2023,13,13,16,16,2727,-764,2963,-1014,-13250,-3122,
1003,7,27,2023,13,13,16,26,5147,-293,2226,-1515,-13757,-3134,
1004,7,27,2023,13,13,16,36,6575,-470,2716,-2046,-13839,-2915,
1005,7,27,2023,13,13,16,46,6069,-1071,2728,-2703,-13009,-2470,
1006,7,27,2023,13,13,16,56,5619,-1832,3078,-3072,-12066,-2578,
1007,7,27,2023,13,13,16,66,3805,-1623,2982,-3139,-11133,-3016,
1008,7,27,2023,13,13,16,76,3665,-471,3662,-3306,-10670,-3509,
1009,7,27,2023,13,13,16,86,2872,-233,3622,-3797,-10250,-3932,
1010,7,27,2023,13,13,16,96,1956,-374,2758,-3941,-10405,-4263,
1011,7,27,2023,13,13,16,106,3378,-553,3527,-3951,-11281,-4522,
1012,7,27,2023,13,13,16,116,6137,-1060,4617,-4508,-11042,-4212,
1013,7,27,2023,13,13,16,126,5217,-1289,4383,-5167,-9747,-4127,
1014,7,27,2023,13,13,16,136,10066,-3376,4972,-5840,-8296,-4905,
1015,7,27,2023,13,13,16,146,11885,-6372,6515,-4845,-4578,-5410,
1016,7,27,2023,13,13,16,156,6716,-5869,6283,-2288,168,-5121,
1017,7,27,2023,13,13,16,166,6037,-5589,6322,-91,2346,-4979,
1018,7,27,2023,13,13,16,176,5907,-5683,6654,1565,3485,-5316,
1019,7,27,2023,13,13,16,186,4695,-5712,6520,2805,4507,-5747,
1020,7,27,2023,13,13,16,196,3839,-5657,6314,3812,5150,-5968,
1021,7,27,2023,13,13,16,216,3605,-4572,5753,4744,6387,-5618,
1022,7,27,2023,13,13,16,226,3241,-4151,5461,4506,7197,-5023,
1023,7,27,2023,13,13,16,236,2754,-3737,4778,3830,8067,-4143,
1024,7,27,2023,13,13,16,246,2145,-3531,3931,2980,8929,-3026,
1025,7,27,2023,13,13,16,256,1676,-3428,3320,2212,9572,-1754,
1026,7,27,2023,13,13,16,266,1449,-3438,2959,1624,10019,-350,
1027,7,27,2023,13,13,16,276,1457,-3176,2742,1234,10386,1066,
1028,7,27,2023,13,13,16,286,1799,-2510,2686,741,10735,2498,
1029,7,27,2023,13,13,16,296,2268,-1949,2581,-236,11107,3891,
1030,7,27,2023,13,13,16,306,2395,-1814,2529,-1482,11438,5136,
1031,7,27,2023,13,13,16,316,2605,-1780,2645,-2640,11526,6131,
1032,7,27,2023,13,13,16,326,2913,-1868,2742,-3515,11485,6906,
1033,7,27,2023,13,13,16,336,3278,-2116,2918,-4020,11466,7485,
1034,7,27,2023,13,13,16,346,3876,-2413,3262,-4222,11435,7922,
1035,7,27,2023,13,13,16,356,4400,-2808,3660,-4111,11386,8406,
1036,7,27,2023,13,13,16,366,4768,-2963,4427,-3625,11345,9026,
1037,7,27,2023,13,13,16,376,5155,-2290,5527,-3140,11246,9791,
1038,7,27,2023,13,13,16,386,6139,-1269,6249,-3305,11341,10548,
1039,7,27,2023,13,13,16,396,6646,-358,6384,-4284,11705,11257,
1040,7,27,2023,13,13,16,406,7299,-991,6196,-5438,11891,11765,
1041,7,27,2023,13,13,16,416,8452,-1831,5733,-5794,11809,11877,
1042,7,27,2023,13,13,16,426,10091,-1795,4773,-5092,11542,11606,
1043,7,27,2023,13,13,16,436,11294,-1055,3979,-3805,11329,10953,
1044,7,27,2023,13,13,16,446,11677,356,3217,-2714,10945,9816,
1045,7,27,2023,13,13,16,456,12007,1766,2263,-2479,10202,8199,
1046,7,27,2023,13,13,16,466,12681,2198,743,-3035,9322,6141,
1047,7,27,2023,13,13,16,476,13603,1772,-1336,-3705,8347,3750,
1048,7,27,2023,13,13,16,486,14428,2263,-3243,-3658,7195,1395,
1049,7,27,2023,13,13,16,496,14418,3901,-4543,-3209,5753,-341,
1050,7,27,2023,13,13,16,506,13052,4305,-5293,-2892,4110,-1336,
1051,7,27,2023,13,13,16,516,10607,1550,-5309,-331,-188,-2688,
1052,7,27,2023,13,13,16,526,14169,1496,-8971,3270,-3429,-3957,
1053,7,27,2023,13,13,16,536,17279,6853,-12691,6003,-7810,-6765,
1054,7,27,2023,13,13,16,546,16199,5176,2404,5146,-14270,-9567,
1055,7,27,2023,13,13,16,556,28790,-11102,14138,4649,-13784,-7065,
1056,7,27,2023,13,13,16,566,823,-3822,9229,6126,-5909,-4566,
1057,7,27,2023,13,13,16,576,733,537,10123,3470,-6381,-3957,
1058,7,27,2023,13,13,16,586,10599,948,9704,3582,-4312,-4454,
1059,7,27,2023,13,13,16,596,10045,747,1954,3023,368,-3652,
1060,7,27,2023,13,13,16,606,1870,2448,2593,1702,63,-1676,
1061,7,27,2023,13,13,16,616,-479,1616,3388,1244,-220,-1081,
1062,7,27,2023,13,13,16,626,2640,-1849,4040,896,-39,-743,
1063,7,27,2023,13,13,16,636,4132,-2638,4891,665,185,-365,
1064,7,27,2023,13,13,16,646,2335,-1399,5335,613,-319,-743,
1065,7,27,2023,13,13,16,656,1912,-1406,4662,399,-1002,-988,
1066,7,27,2023,13,13,16,666,2864,-411,4425,275,-1176,-890,
1067,7,27,2023,13,13,16,676,2137,-146,4680,-45,-1127,-476,
1068,7,27,2023,13,13,16,686,1008,-1625,4911,-291,-1676,-326,
1069,7,27,2023,13,13,16,696,2059,-2058,5522,-280,-2359,-510,
1070,7,27,2023,13,13,16,706,3925,-966,5661,-391,-3599,-854,
1071,7,27,2023,13,13,16,716,1873,-1304,6074,-768,-5029,-1133,
1072,7,27,2023,13,13,16,726,725,-990,6127,-945,-6527,-1309,
1073,7,27,2023,13,13,16,736,262,-1687,5754,-1124,-8036,-1429,
1074,7,27,2023,13,13,16,746,356,-2442,5460,-432,-9702,-1653,
1075,7,27,2023,13,13,16,756,979,-1610,5281,431,-11281,-2077,
1076,7,27,2023,13,13,16,766,2129,-665,4279,314,-12662,-2876,
1077,7,27,2023,13,13,16,776,2355,-623,4312,-326,-14350,-3408,
1078,7,27,2023,13,13,16,786,948,-201,4059,-1033,-15335,-3414,
1079,7,27,2023,13,13,16,796,2443,-607,3835,-1862,-16077,-3324,
1080,7,27,2023,13,13,16,806,5050,-62,3490,-2445,-16276,-3199,
1081,7,27,2023,13,13,16,816,5907,-332,2911,-2984,-15395,-2515,
1082,7,27,2023,13,13,16,826,6661,-80,1743,-3266,-14401,-1999,
1083,7,27,2023,13,13,16,836,7487,-1843,1843,-3230,-13471,-2143,
1084,7,27,2023,13,13,16,846,6597,-3707,1890,-2364,-11702,-2553,
1085,7,27,2023,13,13,16,856,5712,-3375,2886,-864,-9834,-3235,
1086,7,27,2023,13,13,16,866,3272,-1804,2931,-469,-8129,-3373,
1087,7,27,2023,13,13,16,876,620,1261,2256,-1224,-7574,-3718,
1088,7,27,2023,13,13,16,886,925,3723,2495,-3629,-8023,-3486,
1089,7,27,2023,13,13,16,896,3525,2879,3281,-7949,-8274,-4252,
1090,7,27,2023,13,13,16,906,9256,-916,4713,-10258,-7390,-5866,
1091,7,27,2023,13,13,16,916,7096,-3321,4713,-10002,-4365,-6052,
1092,7,27,2023,13,13,16,926,6783,-5273,4426,-8336,-1804,-6057,
1093,7,27,2023,13,13,16,936,7216,-6352,5033,-5212,75,-5979,
1094,7,27,2023,13,13,16,946,6470,-6154,5379,-1799,1763,-5852,
1095,7,27,2023,13,13,16,956,5896,-5767,5858,845,2873,-6080,
1096,7,27,2023,13,13,16,966,5414,-5339,6557,2490,3490,-6549,
1097,7,27,2023,13,13,16,976,5443,-5105,7279,3343,3699,-7033,
1098,7,27,2023,13,13,16,986,5399,-5339,8049,3622,3763,-7344,
1099,7,27,2023,13,13,16,996,6054,-5718,8088,3582,3886,-7406,
1100,7,27,2023,13,13,17,6,6067,-6148,7216,3499,4597,-7228,
1101,7,27,2023,13,13,17,16,4721,-6222,6758,3581,5761,-6837,
1102,7,27,2023,13,13,17,26,3868,-6128,6294,3680,6677,-6166,
1103,7,27,2023,13,13,17,36,2939,-6088,5243,3817,7437,-5233,
1104,7,27,2023,13,13,17,46,2685,-5741,4231,4093,8128,-3888,
1105,7,27,2023,13,13,17,56,2643,-5251,3778,4447,8819,-1979,
1106,7,27,2023,13,13,17,76,1790,-3863,3102,4161,10190,2584,
1107,7,27,2023,13,13,17,86,1574,-2774,2971,3046,10564,4907,
1108,7,27,2023,13,13,17,96,1666,-2119,2909,1244,10691,6977,
1109,7,27,2023,13,13,17,106,1918,-2090,2796,-734,10635,8525,
1110,7,27,2023,13,13,17,116,2333,-2501,3016,-2366,10611,9486,
1111,7,27,2023,13,13,17,126,3063,-2733,3525,-3399,10720,9993,
1112,7,27,2023,13,13,17,136,3736,-2906,4016,-3885,11177,10226,
1113,7,27,2023,13,13,17,146,3807,-2840,4397,-3977,11894,10223,
1114,7,27,2023,13,13,17,156,3475,-2467,4871,-3958,12536,9994,
1115,7,27,2023,13,13,17,166,3301,-1780,5584,-4177,12859,9630,
1116,7,27,2023,13,13,17,176,4109,-1704,6382,-4921,12911,9248,
1117,7,27,2023,13,13,17,186,5770,-2864,7217,-5872,13102,8989,
1118,7,27,2023,13,13,17,196,7426,-4600,7783,-6118,13653,8996,
1119,7,27,2023,13,13,17,206,9057,-5509,7843,-5495,14405,9218,
1120,7,27,2023,13,13,17,216,9743,-1033,7247,-4544,14859,9770,
1121,7,27,2023,13,13,17,226,10964,541,5744,-4983,14381,10836,
1122,7,27,2023,13,13,17,236,12980,131,4302,-5986,13322,11151,
1123,7,27,2023,13,13,17,246,15036,1214,2956,-6201,11755,10644,
1124,7,27,2023,13,13,17,256,16775,2742,1753,-5872,10409,9792,
1125,7,27,2023,13,13,17,266,18071,3604,-49,-5654,9266,8379,
1126,7,27,2023,13,13,17,276,18948,3940,-2861,-5395,7991,6351,
1127,7,27,2023,13,13,17,286,18901,5140,-5602,-4243,6432,3909,
1128,7,27,2023,13,13,17,296,17302,6105,-7348,-2696,4286,1380,
1129,7,27,2023,13,13,17,306,15174,5153,-7136,-1137,1965,-1026,
1130,7,27,2023,13,13,17,316,14294,5277,-5385,266,-8,-2716,
1131,7,27,2023,13,13,17,326,11952,3283,-5043,1063,-1603,-3230,
1132,7,27,2023,13,13,17,336,15852,2021,-11615,3069,-5297,-4747,
1133,7,27,2023,13,13,17,346,5967,843,-10058,5512,-11495,-9535,
1134,7,27,2023,13,13,17,356,26416,-7030,7630,5523,-16661,-12562,
1135,7,27,2023,13,13,17,366,25205,-12515,11129,7117,-12385,-8752,
1136,7,27,2023,13,13,17,376,6808,1247,13868,6181,-8451,-4896,
1137,7,27,2023,13,13,17,386,7431,5416,17458,4963,-5147,-3712,
1138,7,27,2023,13,13,17,396,5777,-1152,6076,3561,1043,-4106,
1139,7,27,2023,13,13,17,406,5832,1947,1952,1659,231,-1788,
1140,7,27,2023,13,13,17,416,2033,2210,1319,1087,-986,-1580,
1141,7,27,2023,13,13,17,426,1236,-992,1596,656,-882,-1157,
1142,7,27,2023,13,13,17,436,2136,-2175,3507,583,26,-570,
1143,7,27,2023,13,13,17,446,2182,-3181,5799,678,466,-443,
1144,7,27,2023,13,13,17,456,284,-1450,6594,652,61,-796,
1145,7,27,2023,13,13,17,466,4947,730,5183,326,-1279,-1051,
1146,7,27,2023,13,13,17,476,3275,660,4930,-222,-1819,-661,
1147,7,27,2023,13,13,17,486,1500,-598,4894,-723,-1996,-200,
1148,7,27,2023,13,13,17,496,410,-1557,5404,-1015,-2567,-197,
1149,7,27,2023,13,13,17,506,1181,-1584,5890,-1353,-3682,-469,
1150,7,27,2023,13,13,17,516,1627,-1737,5724,-1852,-4881,-632,
1151,7,27,2023,13,13,17,526,2723,-1249,4956,-1995,-6148,-932,
1152,7,27,2023,13,13,17,536,1893,-1896,4711,-1757,-7871,-1177,
1153,7,27,2023,13,13,17,546,256,-1416,4972,-797,-9358,-1433,
1154,7,27,2023,13,13,17,556,-171,-1078,5121,-354,-10531,-1779,
1155,7,27,2023,13,13,17,566,1539,-1393,4570,-790,-11763,-1932,
1156,7,27,2023,13,13,17,576,1768,-1160,3987,-1057,-12938,-1955,
1157,7,27,2023,13,13,17,586,3176,-434,2783,-1674,-14178,-2061,
1158,7,27,2023,13,13,17,596,3489,-1383,3539,-2195,-15201,-2287,
1159,7,27,2023,13,13,17,606,3306,-1565,3409,-2532,-15145,-2379,
1160,7,27,2023,13,13,17,616,5321,-2272,3249,-2755,-14714,-2564,
1161,7,27,2023,13,13,17,626,5946,-2382,3112,-2776,-13794,-2585,
1162,7,27,2023,13,13,17,636,6298,-2950,2349,-2801,-12300,-2658,
1163,7,27,2023,13,13,17,646,4625,-1814,738,-2491,-11347,-3123,
1164,7,27,2023,13,13,17,656,6276,-1301,2477,-2150,-11190,-3910,
1165,7,27,2023,13,13,17,666,5533,488,3705,-2386,-9704,-3708,
1166,7,27,2023,13,13,17,676,3888,487,3202,-3765,-8229,-3353,
1167,7,27,2023,13,13,17,686,2509,360,3491,-5136,-7665,-3180,
1168,7,27,2023,13,13,17,696,3455,749,4860,-7017,-7750,-2849,
1169,7,27,2023,13,13,17,706,7381,-1693,5062,-9289,-7299,-4552,
1170,7,27,2023,13,13,17,716,10264,-4253,6366,-8745,-5326,-6757,
1171,7,27,2023,13,13,17,726,6449,-5056,5700,-7061,-1656,-7143,
1172,7,27,2023,13,13,17,736,5318,-5912,5241,-5276,669,-7824,
1173,7,27,2023,13,13,17,746,4840,-6526,5576,-3083,2011,-8677,
1174,7,27,2023,13,13,17,756,3814,-6389,6137,-1010,3052,-9497,
1175,7,27,2023,13,13,17,766,4214,-6050,6898,416,3414,-10162,
1176,7,27,2023,13,13,17,776,5337,-6294,7410,1034,3696,-10381,
1177,7,27,2023,13,13,17,786,6241,-7096,7332,1251,4450,-10124,
1178,7,27,2023,13,13,17,796,6345,-7952,6924,1932,5702,-9301,
1179,7,27,2023,13,13,17,806,5522,-8411,6452,3418,7057,-8022,
1180,7,27,2023,13,13,17,816,4304,-8024,6256,5004,8104,-6622,
1181,7,27,2023,13,13,17,826,3093,-7282,5571,5958,8767,-5033,
1182,7,27,2023,13,13,17,836,2600,-6132,4353,6742,9162,-3068,
1183,7,27,2023,13,13,17,846,2236,-4060,3673,6936,9598,-868,
1184,7,27,2023,13,13,17,856,2405,-2603,3458,5589,9947,1429,
1185,7,27,2023,13,13,17,866,1792,-2571,2975,3464,10235,3783,
1186,7,27,2023,13,13,17,876,1496,-2769,2563,1624,10285,5894,
1187,7,27,2023,13,13,17,886,2104,-2772,2571,150,10193,7510,
1188,7,27,2023,13,13,17,896,3144,-2713,2665,-1044,10229,8589,
1189,7,27,2023,13,13,17,906,3927,-2669,2869,-1972,10552,9298,
1190,7,27,2023,13,13,17,916,4462,-2580,3028,-2561,11063,9682,
1191,7,27,2023,13,13,17,936,5657,-2696,2943,-3101,12012,9650,
1192,7,27,2023,13,13,17,946,5971,-3167,2918,-3032,12256,9564,
1193,7,27,2023,13,13,17,956,5450,-2647,3440,-2369,12163,9646,
1194,7,27,2023,13,13,17,966,5144,-203,4320,-2076,11850,9749,
1195,7,27,2023,13,13,17,976,5300,1500,4825,-3550,11649,9693,
1196,7,27,2023,13,13,17,986,6396,210,5075,-6285,11635,9380,
1197,7,27,2023,13,13,17,996,7717,-2517,4753,-7768,11849,9031,
1198,7,27,2023,13,13,18,6,9458,-3797,4243,-6869,12208,8785,
1199,7,27,2023,13,13,18,16,10837,-3835,3490,-4724,12622,8772,
1200,7,27,2023,13,13,18,26,11004,-2458,2940,-2438,12804,8749,
1201,7,27,2023,13,13,18,36,11148,324,2807,-1250,12304,8674,
1202,7,27,2023,13,13,18,46,12008,2747,2241,-2011,11276,8409,
1203,7,27,2023,13,13,18,56,13288,2928,1006,-4297,10122,7585,
1204,7,27,2023,13,13,18,66,14379,1610,-849,-6267,8861,6247,
1205,7,27,2023,13,13,18,76,14988,1638,-2519,-6184,7285,4702,
1206,7,27,2023,13,13,18,86,15509,3407,-3477,-4718,5420,3173,
1207,7,27,2023,13,13,18,96,14991,5306,-4166,-3706,3827,1787,
1208,7,27,2023,13,13,18,106,13751,5054,-4928,-3630,2323,374,
1209,7,27,2023,13,13,18,116,12543,3485,-5349,-3188,605,-1179,
1210,7,27,2023,13,13,18,126,10880,1090,-5336,-1379,-1383,-2397,
1211,7,27,2023,13,13,18,136,13005,-554,-8592,2771,-4740,-3540,
1212,7,27,2023,13,13,18,146,11693,3929,-11424,7705,-9992,-6643,
1213,7,27,2023,13,13,18,156,16522,3202,6441,7103,-15706,-10544,
1214,7,27,2023,13,13,18,166,29554,-9784,14943,6077,-13262,-8806,
1215,7,27,2023,13,13,18,176,7543,2124,10350,6023,-6571,-5551,
1216,7,27,2023,13,13,18,186,1712,-1053,13738,3564,-6851,-4410,
1217,7,27,2023,13,13,18,196,6466,-2487,8691,4024,-3327,-4684,
1218,7,27,2023,13,13,18,206,11562,2003,921,3145,362,-3522,
1219,7,27,2023,13,13,18,216,1653,3361,1864,1740,42,-1912,
1220,7,27,2023,13,13,18,226,-179,2158,2660,1217,-237,-1345,
1221,7,27,2023,13,13,18,236,2678,-2584,3885,706,80,-542,
1222,7,27,2023,13,13,18,246,2926,-3764,5848,758,528,-354,
1223,7,27,2023,13,13,18,256,3850,-870,6132,847,-130,-945,
1224,7,27,2023,13,13,18,266,2069,-791,5046,494,-1272,-1238,
1225,7,27,2023,13,13,18,276,2093,-514,4477,257,-1435,-964,
1226,7,27,2023,13,13,18,286,1790,-172,4757,-13,-1511,-667,
1227,7,27,2023,13,13,18,296,1012,-1751,5356,-293,-2159,-592,
1228,7,27,2023,13,13,18,306,2716,-1723,5174,-413,-2966,-765,
1229,7,27,2023,13,13,18,316,3727,-1355,5558,-811,-4734,-1285,
1230,7,27,2023,13,13,18,326,1148,-1977,5938,-1029,-6340,-1476,
1231,7,27,2023,13,13,18,336,-536,-2137,5783,-1077,-7663,-1730,
1232,7,27,2023,13,13,18,346,-420,-1919,5379,-561,-9139,-2000,
1233,7,27,2023,13,13,18,356,1265,-1258,5260,334,-10857,-2377,
1234,7,27,2023,13,13,18,366,3175,-211,4000,491,-12508,-2894,
1235,7,27,2023,13,13,18,376,1529,-844,4537,138,-14421,-3315,
1236,7,27,2023,13,13,18,386,690,-649,5055,-452,-15846,-3348,
1237,7,27,2023,13,13,18,396,1479,50,4489,-1505,-16849,-3378,
1238,7,27,2023,13,13,18,406,4583,-748,4519,-2629,-17406,-3299,
1239,7,27,2023,13,13,18,416,6302,-270,2545,-3173,-17167,-2954,
1240,7,27,2023,13,13,18,426,8191,-584,3102,-3487,-16878,-2752,
1241,7,27,2023,13,13,18,436,6206,-1884,2785,-3723,-15158,-2562,
1242,7,27,2023,13,13,18,446,6466,-3947,2897,-3397,-13700,-2842,
1243,7,27,2023,13,13,18,456,5659,-1199,4021,-3146,-11943,-3247,
1244,7,27,2023,13,13,18,466,3827,1125,3709,-4400,-10186,-3513,
1245,7,27,2023,13,13,18,476,1195,-447,975,-6065,-9377,-4181,
1246,7,27,2023,13,13,18,486,3463,241,1381,-7361,-9640,-3710,
1247,7,27,2023,13,13,18,496,3709,-204,1906,-9137,-8726,-4129,
1248,7,27,2023,13,13,18,506,11207,-4845,3079,-9331,-7500,-5753,
1249,7,27,2023,13,13,18,516,8244,-6692,4010,-6869,-3747,-5978,
1250,7,27,2023,13,13,18,526,5680,-5887,4324,-3883,-606,-5703,
1251,7,27,2023,13,13,18,536,6659,-4845,4949,-1307,875,-5506,
1252,7,27,2023,13,13,18,546,6428,-4125,5385,79,2283,-5454,
1253,7,27,2023,13,13,18,556,5735,-3822,5439,530,3349,-5582,
1254,7,27,2023,13,13,18,566,5046,-3786,5623,611,4012,-5819,
1255,7,27,2023,13,13,18,576,4740,-3983,6295,537,4282,-6175,
1256,7,27,2023,13,13,18,586,4916,-4125,6929,440,4148,-6540,
1257,7,27,2023,13,13,18,596,4950,-4980,6979,405,3905,-6846,
1258,7,27,2023,13,13,18,606,4798,-5975,6327,946,3918,-7021,
1259,7,27,2023,13,13,18,616,4572,-5984,6124,2126,4318,-6901,
1260,7,27,2023,13,13,18,626,4098,-5627,6219,3309,4756,-6313,
1261,7,27,2023,13,13,18,636,3267,-5189,5910,4227,5281,-5340,
1262,7,27,2023,13,13,18,646,2789,-4520,5083,4788,5946,-4038,
1263,7,27,2023,13,13,18,656,3054,-3646,4386,4818,6818,-2477,
1264,7,27,2023,13,13,18,666,2873,-2961,3831,4121,7911,-693,
1265,7,27,2023,13,13,18,676,2187,-2927,3318,3114,8952,1176,
1266,7,27,2023,13,13,18,686,1866,-2929,2889,2215,9715,2917,
1267,7,27,2023,13,13,18,696,2252,-2715,2527,1336,10207,4467,
1268,7,27,2023,13,13,18,706,2990,-2351,2399,387,10616,5796,
1269,7,27,2023,13,13,18,716,3885,-1806,2483,-767,11065,6889,
1270,7,27,2023,13,13,18,726,4300,-1586,2520,-2066,11523,7836,
1271,7,27,2023,13,13,18,736,4229,-1654,2606,-3147,11949,8540,
1272,7,27,2023,13,13,18,746,4376,-1835,2698,-3913,12277,8968,
1273,7,27,2023,13,13,18,756,4850,-2266,2834,-4354,12528,9151,
1274,7,27,2023,13,13,18,766,4940,-2630,3137,-4311,12665,9281,
1275,7,27,2023,13,13,18,776,4560,-2512,3786,-3759,12574,9473,
1276,7,27,2023,13,13,18,796,5079,-1288,5228,-3765,10616,5796,
1277,7,27,2023,13,13,18,806,5671,-1962,5830,-4744,12423,9833,
1278,7,27,2023,13,13,18,816,6738,-2794,6193,-5348,12430,10027,
1279,7,27,2023,13,13,18,826,8158,-1888,6346,-5416,12550,10359,
1280,7,27,2023,13,13,18,836,9542,-1808,5589,-5608,12647,10842,
1281,7,27,2023,13,13,18,846,10489,-3252,4508,-5549,12606,10997,
1282,7,27,2023,13,13,18,856,11044,-2950,3730,-4271,12161,10680,
1283,7,27,2023,13,13,18,866,11658,163,3415,-2860,11345,10082,
1284,7,27,2023,13,13,18,876,12713,2726,2900,-3214,10391,9179,
1285,7,27,2023,13,13,18,886,14192,2250,1231,-5184,9431,7776,
1286,7,27,2023,13,13,18,896,15546,494,-1370,-6357,8467,5791,
1287,7,27,2023,13,13,18,906,16638,878,-3836,-5467,7424,3337,
1288,7,27,2023,13,13,18,916,16289,3884,-5410,-3885,6119,985,
1289,7,27,2023,13,13,18,926,14779,5422,-6027,-3392,4329,-773,
1290,7,27,2023,13,13,18,936,12969,3981,-6061,-3116,2044,-1765,
1291,7,27,2023,13,13,18,946,11814,1204,-5743,-967,-718,-2135,
1292,7,27,2023,13,13,18,956,13867,142,-8290,3683,-4301,-2557,
1293,7,27,2023,13,13,18,966,22853,8113,-15293,8802,-9430,-4736,
1294,7,27,2023,13,13,18,976,13058,12600,-1092,8048,-16844,-9411,
1295,7,27,2023,13,13,18,986,32767,-7211,18835,4871,-19571,-10124,
1296,7,27,2023,13,13,18,996,14490,-1678,15264,6223,-8540,-7460,
1297,7,27,2023,13,13,19,6,-1894,-2815,9979,3957,-5743,-5184,
1298,7,27,2023,13,13,19,16,6525,-5179,8630,4477,-4244,-5082,
1299,7,27,2023,13,13,19,26,10025,1159,-209,5438,1334,-5220,
1300,7,27,2023,13,13,19,36,3502,4246,760,4093,1412,-3809,
1301,7,27,2023,13,13,19,46,-814,3371,3182,2653,468,-2132,
1302,7,27,2023,13,13,19,56,1820,-1859,5331,1647,625,-990,
1303,7,27,2023,13,13,19,66,5014,-2573,7011,1397,893,-515,
1304,7,27,2023,13,13,19,76,4283,-326,7203,1177,-130,-1069,
1305,7,27,2023,13,13,19,86,950,-1430,5273,820,-1025,-1388,
1306,7,27,2023,13,13,19,96,889,-248,4720,602,-1237,-1361,
1307,7,27,2023,13,13,19,106,2197,356,5130,154,-1622,-1070,
1308,7,27,2023,13,13,19,116,2514,-703,5508,-296,-2430,-717,
1309,7,27,2023,13,13,19,126,4218,-296,5987,-775,-3979,-835,
1310,7,27,2023,13,13,19,136,2112,-1478,6760,-1144,-5855,-934,
1311,7,27,2023,13,13,19,146,-917,-2433,7285,-1169,-7381,-1003,
1312,7,27,2023,13,13,19,156,-146,-1711,6920,-1008,-9165,-1336,
1313,7,27,2023,13,13,19,166,111,-2909,5765,-727,-11142,-1905,
1314,7,27,2023,13,13,19,176,2106,-1182,4518,529,-13385,-2874,
1315,7,27,2023,13,13,19,186,1154,-305,5056,1002,-15565,-3956,
1316,7,27,2023,13,13,19,196,319,-162,5473,395,-16655,-4389,
1317,7,27,2023,13,13,19,206,1207,-182,5041,-732,-17574,-4166,
1318,7,27,2023,13,13,19,216,3763,-310,3983,-1909,-18009,-3764,
1319,7,27,2023,13,13,19,226,7921,233,2222,-2561,-18268,-3467,
1320,7,27,2023,13,13,19,236,11250,-264,4467,-3016,-17348,-2973,
1321,7,27,2023,13,13,19,246,8419,-2872,3894,-3528,-14264,-2711,
1322,7,27,2023,13,13,19,256,7103,-4412,2956,-2835,-11734,-3365,
1323,7,27,2023,13,13,19,266,6781,-2646,2576,-1933,-9508,-4061,
1324,7,27,2023,13,13,19,276,1979,1713,1623,-2222,-8307,-4926,
1325,7,27,2023,13,13,19,286,916,5930,488,-5393,-8994,-6144,
1326,7,27,2023,13,13,19,296,9197,3424,2336,-9523,-9534,-7609,
1327,7,27,2023,13,13,19,306,8816,-536,3599,-12098,-6643,-7184,
1328,7,27,2023,13,13,19,316,6040,-3131,2727,-12105,-3540,-6902,
1329,7,27,2023,13,13,19,326,6789,-5121,3174,-9733,-2361,-7273,
1330,7,27,2023,13,13,19,336,6759,-6540,3472,-6402,-1199,-7710,
1331,7,27,2023,13,13,19,346,6734,-7658,3705,-2654,-370,-8266,
1332,7,27,2023,13,13,19,356,6844,-7567,4594,1205,-22,-8905,
1333,7,27,2023,13,13,19,366,6348,-6163,5543,4153,97,-9333,
1334,7,27,2023,13,13,19,376,5877,-4556,6418,5569,26,-9277,
1335,7,27,2023,13,13,19,386,5312,-3325,7302,5510,-259,-8855,
1336,7,27,2023,13,13,19,396,5275,-2476,8204,4251,-777,-8263,
1337,7,27,2023,13,13,19,406,6034,-2834,8578,2276,-1316,-7537,
1338,7,27,2023,13,13,19,416,6844,-4911,8279,726,-1405,-6718,
1339,7,27,2023,13,13,19,426,7206,-7023,7519,784,-787,-5941,
1340,7,27,2023,13,13,19,436,7079,-7636,6770,2362,550,-5052,
1341,7,27,2023,13,13,19,446,5977,-7161,6247,4556,2279,-3689,
1342,7,27,2023,13,13,19,456,4604,-5933,5580,6433,3968,-2084,
1343,7,27,2023,13,13,19,466,3392,-4636,4488,7290,5494,-385,
1344,7,27,2023,13,13,19,476,2054,-3377,3502,7120,6859,1296,
1345,7,27,2023,13,13,19,486,704,-2307,2999,5995,7922,2939,
1346,7,27,2023,13,13,19,496,192,-1816,2798,4030,8646,4463,
1347,7,27,2023,13,13,19,506,399,-1845,2382,1809,9290,5892,
1348,7,27,2023,13,13,19,516,1191,-2133,2080,-153,10045,7092,
1349,7,27,2023,13,13,19,526,2118,-2409,1953,-1626,10984,7904,
1350,7,27,2023,13,13,19,536,3081,-2369,2184,-2588,11930,8362,
1351,7,27,2023,13,13,19,546,4011,-1999,2482,-3282,12797,8679,
1352,7,27,2023,13,13,19,556,4602,-1666,2743,-3874,13581,8961,
1353,7,27,2023,13,13,19,566,4842,-1586,2894,-4393,14268,9257,
1354,7,27,2023,13,13,19,576,4612,-1701,2955,-4678,14755,9543,
1355,7,27,2023,13,13,19,586,4226,-1509,3306,-4602,14888,9808,
1356,7,27,2023,13,13,19,596,4319,-1062,3840,-4433,14685,10017,
1357,7,27,2023,13,13,19,606,5062,-1101,4387,-4652,14541,10141,
1358,7,27,2023,13,13,19,616,5974,-1836,4941,-4977,14572,10318,
1359,7,27,2023,13,13,19,626,6673,-1222,5690,-4843,14689,10656,
1360,7,27,2023,13,13,19,636,7774,-1049,6255,-4788,14701,11167,
1361,7,27,2023,13,13,19,656,10474,-2698,5576,-4653,15110,11508,
1362,7,27,2023,13,13,19,666,11546,-2674,5056,-3585,15091,11282,
1363,7,27,2023,13,13,19,676,12507,-715,4613,-2390,14528,10869,
1364,7,27,2023,13,13,19,686,13787,1625,4172,-2298,13407,10151,
1365,7,27,2023,13,13,19,696,15211,2181,3159,-3787,12124,8878,
1366,7,27,2023,13,13,19,706,16453,495,1152,-5480,10923,7158,
1367,7,27,2023,13,13,19,716,17606,-300,-1463,-5248,9620,5241,
1368,7,27,2023,13,13,19,726,17769,2011,-3842,-3269,7946,3318,
1369,7,27,2023,13,13,19,736,16608,5620,-5316,-2304,6059,1367,
1370,7,27,2023,13,13,19,746,14959,5626,-5971,-3397,3991,-383,
1371,7,27,2023,13,13,19,756,13961,3318,-5748,-3641,1840,-1420,
1372,7,27,2023,13,13,19,766,12838,2140,-5142,-1838,-183,-1286,
1373,7,27,2023,13,13,19,776,10717,-287,-7269,1589,-3039,-867,
1374,7,27,2023,13,13,19,786,22102,1934,-16701,6640,-9372,-3115,
1375,7,27,2023,13,13,19,796,9643,8594,-2481,7824,-17090,-9758,
1376,7,27,2023,13,13,19,806,32767,-5969,18370,5360,-20640,-11706,
1377,7,27,2023,13,13,19,816,17043,-3077,16113,6854,-11486,-7922,
1378,7,27,2023,13,13,19,826,4563,-2996,12490,4796,-8119,-5686,
1379,7,27,2023,13,13,19,836,8695,-2425,9673,5305,-3525,-4915,
1380,7,27,2023,13,13,19,846,7817,2545,1728,4622,1497,-4218,
1381,7,27,2023,13,13,19,856,2054,4111,1408,2847,328,-2798,
1382,7,27,2023,13,13,19,866,246,1811,1711,1976,-32,-1736,
1383,7,27,2023,13,13,19,876,1852,-2764,4547,1602,799,-963,
1384,7,27,2023,13,13,19,886,6907,-1348,7376,1429,919,-701,
1385,7,27,2023,13,13,19,896,2263,-1589,7366,1138,145,-1069,
1386,7,27,2023,13,13,19,906,42,-2320,5424,826,-861,-1295,
1387,7,27,2023,13,13,19,916,1122,-234,4899,637,-1348,-1288,
1388,7,27,2023,13,13,19,926,2334,469,4904,260,-1926,-1070,
1389,7,27,2023,13,13,19,936,4231,132,5212,-231,-3100,-947,
1390,7,27,2023,13,13,19,946,2635,-706,6615,-782,-4590,-915,
1391,7,27,2023,13,13,19,956,836,-2093,7261,-1121,-5783,-741,
1392,7,27,2023,13,13,19,966,-217,-2105,7360,-1238,-7551,-897,
1393,7,27,2023,13,13,19,976,-398,-2522,7170,-1133,-9749,-1442,
1394,7,27,2023,13,13,19,986,607,-2348,5091,-324,-11971,-2370,
1395,7,27,2023,13,13,19,996,1376,-956,5739,898,-14897,-3668,
1396,7,27,2023,13,13,20,6,564,-876,6444,646,-16506,-4250,
1397,7,27,2023,13,13,20,16,-332,24,5525,-260,-17651,-4337,
1398,7,27,2023,13,13,20,26,1736,670,5556,-1829,-19124,-3891,
1399,7,27,2023,13,13,20,36,6931,147,3613,-3421,-20049,-3677,
1400,7,27,2023,13,13,20,46,12729,-551,5178,-4538,-19407,-3265,
1401,7,27,2023,13,13,20,56,10587,-2622,3743,-5641,-15642,-2817,
1402,7,27,2023,13,13,20,66,8432,-4038,2115,-5346,-12282,-3312,
1403,7,27,2023,13,13,20,76,6822,-2382,1523,-4344,-9778,-4154,
1404,7,27,2023,13,13,20,86,754,2604,660,-4147,-8830,-5261,
1405,7,27,2023,13,13,20,96,2598,4385,-799,-6488,-10267,-6384,
1406,7,27,2023,13,13,20,106,10242,1527,2101,-9276,-10645,-7194,
1407,7,27,2023,13,13,20,116,6386,-4080,2361,-10893,-5189,-7030,
1408,7,27,2023,13,13,20,126,6784,-6164,2586,-8577,-3710,-7440,
1409,7,27,2023,13,13,20,136,6235,-6763,3019,-5165,-2171,-7910,
1410,7,27,2023,13,13,20,146,6108,-6819,3489,-1532,-1332,-8243,
1411,7,27,2023,13,13,20,156,5766,-5936,4374,1632,-1047,-8538,
1412,7,27,2023,13,13,20,166,5463,-4663,5185,3532,-1122,-8698,
1413,7,27,2023,13,13,20,176,5231,-3703,5854,4276,-1371,-8507,
1414,7,27,2023,13,13,20,186,5107,-2967,6588,4111,-1673,-8034,
1415,7,27,2023,13,13,20,196,5418,-2607,7324,3212,-2008,-7415,
1416,7,27,2023,13,13,20,206,6207,-2942,7884,2006,-2225,-6785,
1417,7,27,2023,13,13,20,216,7046,-4066,8501,1141,-2182,-6155,
1418,7,27,2023,13,13,20,226,7543,-5497,8417,1025,-1728,-5653,
1419,7,27,2023,13,13,20,236,7131,-6759,7682,1930,-688,-5211,
1420,7,27,2023,13,13,20,246,6243,-6874,6836,3821,800,-4601,
1421,7,27,2023,13,13,20,256,5032,-6330,6376,5921,2456,-3606,
1422,7,27,2023,13,13,20,266,3652,-5286,5777,7624,4002,-2300,
1423,7,27,2023,13,13,20,276,2590,-3896,4851,8407,5443,-932,
1424,7,27,2023,13,13,20,286,1428,-2686,3817,8078,6944,517,
1425,7,27,2023,13,13,20,296,8,-1585,3158,6715,8337,1913,
1426,7,27,2023,13,13,20,306,-531,-1056,2835,4480,9375,3105,
1427,7,27,2023,13,13,20,316,-277,-1237,2453,1848,10267,4083,
1428,7,27,2023,13,13,20,326,632,-1775,2217,-501,11173,4934,
1429,7,27,2023,13,13,20,336,2024,-2380,2106,-2173,12232,5636,
1430,7,27,2023,13,13,20,346,3110,-2703,2049,-3144,13478,6117,
1431,7,27,2023,13,13,20,356,4092,-2549,2252,-3688,14615,6461,
1432,7,27,2023,13,13,20,366,4754,-2016,2565,-4106,15443,6806,
1433,7,27,2023,13,13,20,376,5069,-1498,2822,-4663,15827,7190,
1434,7,27,2023,13,13,20,386,5174,-1429,2918,-5349,15853,7628,
1435,7,27,2023,13,13,20,396,4883,-1760,3114,-5811,15608,8103,
1436,7,27,2023,13,13,20,406,4774,-1948,3603,-5762,15124,8618,
1437,7,27,2023,13,13,20,416,5168,-1830,4127,-5460,14703,9146,
1438,7,27,2023,13,13,20,426,5466,-2079,4519,-5328,14532,9703,
1439,7,27,2023,13,13,20,436,5859,-2531,5201,-5213,14461,10286,
1440,7,27,2023,13,13,20,446,6757,-3021,5967,-4895,14458,10805,
1441,7,27,2023,13,13,20,456,7939,-1902,6587,-4720,14671,11125,
1442,7,27,2023,13,13,20,466,9181,-920,6567,-5346,14818,11337,
1443,7,27,2023,13,13,20,476,10611,-2605,6018,-6264,14856,11205,
1444,7,27,2023,13,13,20,486,11974,-3087,4968,-6056,14491,10579,
1445,7,27,2023,13,13,20,496,13782,-1095,4154,-5127,13661,9822,
1446,7,27,2023,13,13,20,516,16780,1516,2151,-5290,11293,8608,
1447,7,27,2023,13,13,20,526,17777,1013,-55,-5400,9672,7780,
1448,7,27,2023,13,13,20,536,18042,1912,-3154,-4469,7813,6336,
1449,7,27,2023,13,13,20,546,18061,4691,-5889,-3607,5454,3928,
1450,7,27,2023,13,13,20,556,17543,6832,-6159,-4307,3131,951,
1451,7,27,2023,13,13,20,566,14658,3789,-5854,-5099,1143,-1041,
1452,7,27,2023,13,13,20,576,13891,-1021,-8547,-869,-1827,-2296,
1453,7,27,2023,13,13,20,586,28471,5674,-17568,8054,-7285,-4554,
1454,7,27,2023,13,13,20,596,15420,18188,-7764,10458,-14143,-11100,
1455,7,27,2023,13,13,20,606,31363,-7000,19958,5245,-20638,-13445,
1456,7,27,2023,13,13,20,616,18281,-5957,15807,7042,-10010,-8168,
1457,7,27,2023,13,13,20,626,-1867,-1244,9281,4966,-7224,-5266,
1458,7,27,2023,13,13,20,636,8705,-3307,13139,4980,-6799,-5512,
1459,7,27,2023,13,13,20,646,4910,518,2918,4978,668,-4635,
1460,7,27,2023,13,13,20,656,4452,3504,-356,3344,862,-3218,
1461,7,27,2023,13,13,20,666,5438,5050,697,2439,-436,-2621,
1462,7,27,2023,13,13,20,676,1782,-1535,4070,1485,217,-1201,
1463,7,27,2023,13,13,20,686,2259,-3420,7874,1525,1193,-577,
1464,7,27,2023,13,13,20,696,654,-3794,8725,1333,593,-921,
1465,7,27,2023,13,13,20,706,4707,-673,5189,1090,-1122,-1723,
1466,7,27,2023,13,13,20,716,3920,1261,4104,722,-2231,-2041,
1467,7,27,2023,13,13,20,726,625,649,5088,34,-2358,-1305,
1468,7,27,2023,13,13,20,736,1022,-328,6747,-496,-3095,-754,
1469,7,27,2023,13,13,20,746,2651,-701,7496,-1038,-4831,-618,
1470,7,27,2023,13,13,20,756,2964,-1669,7261,-1508,-7446,-984,
1471,7,27,2023,13,13,20,766,5,-2613,7811,-1528,-10127,-1138,
1472,7,27,2023,13,13,20,776,-1695,-3649,6716,-918,-11948,-1809,
1473,7,27,2023,13,13,20,786,-1907,-2707,6760,561,-14138,-2902,
1474,7,27,2023,13,13,20,796,1113,-430,4648,909,-16317,-4319,
1475,7,27,2023,13,13,20,806,1944,171,4909,205,-19008,-5286,
1476,7,27,2023,13,13,20,816,1478,307,5783,-1096,-20361,-4984,
1477,7,27,2023,13,13,20,826,5197,-765,5977,-2692,-20569,-4471,
1478,7,27,2023,13,13,20,836,8783,-1176,5331,-3811,-19529,-3841,
1479,7,27,2023,13,13,20,846,10335,-916,3086,-4249,-18064,-3638,
1480,7,27,2023,13,13,20,856,12662,-3187,3828,-4811,-15786,-3501,
1481,7,27,2023,13,13,20,866,9179,-3708,2817,-4974,-11690,-4100,
1482,7,27,2023,13,13,20,876,2726,959,763,-4641,-9403,-5277,
1483,7,27,2023,13,13,20,886,470,3987,-1633,-5847,-10332,-6971,
1484,7,27,2023,13,13,20,896,12444,1969,924,-8259,-11608,-8313,
1485,7,27,2023,13,13,20,906,11898,-2695,3484,-10261,-8071,-7712,
1486,7,27,2023,13,13,20,916,8411,-7117,1608,-9740,-3558,-7230,
1487,7,27,2023,13,13,20,926,7104,-8222,2020,-6119,-1166,-7427,
1488,7,27,2023,13,13,20,936,6449,-6872,3572,-1763,80,-7474,
1489,7,27,2023,13,13,20,946,6458,-5881,4724,1560,214,-7328,
1490,7,27,2023,13,13,20,956,6103,-5337,5474,3590,-297,-7372,
1491,7,27,2023,13,13,20,966,5362,-4496,6219,4609,-1162,-7480,
1492,7,27,2023,13,13,20,976,4925,-3504,7015,4608,-2279,-7500,
1493,7,27,2023,13,13,20,986,4784,-2595,7621,3690,-3383,-7431,
1494,7,27,2023,13,13,20,996,4959,-2242,8149,2189,-4354,-7236,
1495,7,27,2023,13,13,21,6,5730,-2589,8619,519,-4993,-6921,
1496,7,27,2023,13,13,21,16,6579,-3410,8868,-794,-5018,-6585,
1497,7,27,2023,13,13,21,26,7263,-4435,9216,-1306,-4453,-6318,
1498,7,27,2023,13,13,21,36,7577,-5516,9022,-1014,-3235,-6033,
1499,7,27,2023,13,13,21,46,7078,-6349,7939,157,-1217,-5517,
1500,7,27,2023,13,13,21,56,5678,-6683,6938,2095,1286,-4676,
1501,7,27,2023,13,13,21,66,3656,-6594,6174,4279,3624,-3521,
1502,7,27,2023,13,13,21,76,1907,-5606,5067,6248,5325,-2340,
1503,7,27,2023,13,13,21,86,985,-4719,3605,7373,6666,-1133,
1504,7,27,2023,13,13,21,96,133,-3813,2501,7668,8097,322,
1505,7,27,2023,13,13,21,106,-597,-2647,2142,6883,9501,1908,
1506,7,27,2023,13,13,21,116,-156,-1658,2194,4796,10711,3611,
1507,7,27,2023,13,13,21,126,1182,-1847,2096,1942,11881,5568,
1508,7,27,2023,13,13,21,136,2202,-3098,1701,-602,13144,7427,
1509,7,27,2023,13,13,21,146,3137,-3682,1564,-1967,14357,8641,
1510,7,27,2023,13,13,21,156,4383,-3341,1776,-2643,15374,9255,
1511,7,27,2023,13,13,21,166,5402,-3055,2120,-3171,16202,9602,
1512,7,27,2023,13,13,21,176,5836,-2891,2375,-3520,16764,9845,
1513,7,27,2023,13,13,21,186,5795,-2744,2750,-3721,16979,10014,
1514,7,27,2023,13,13,21,196,5946,-2374,3171,-3838,16898,10156,
1515,7,27,2023,13,13,21,206,6151,-1944,3549,-4046,16777,10322,
1516,7,27,2023,13,13,21,216,6469,-1874,3973,-4423,16717,10474,
1517,7,27,2023,13,13,21,226,7631,-2421,4390,-4873,16701,10612,
1518,7,27,2023,13,13,21,236,9009,-3056,4728,-5003,16815,10735,
1519,7,27,2023,13,13,21,246,9944,-187,5121,-4926,16960,10839,
1520,7,27,2023,13,13,21,256,11252,-876,4615,-5889,16854,10996,
1521,7,27,2023,13,13,21,266,12082,-3105,4005,-6496,16609,10631,
1522,7,27,2023,13,13,21,276,13003,-2916,3465,-5432,15802,9898,
1523,7,27,2023,13,13,21,286,14409,-87,3516,-3960,14792,9241,
1524,7,27,2023,13,13,21,296,15410,2617,3336,-4036,13714,8597,
1525,7,27,2023,13,13,21,306,16167,2645,2471,-5769,12408,7722,
1526,7,27,2023,13,13,21,316,17046,1346,1072,-7157,10841,6743,
1527,7,27,2023,13,13,21,326,18506,667,-919,-6402,9102,5896,
1528,7,27,2023,13,13,21,336,18535,1388,-3695,-3789,7379,5091,
1529,7,27,2023,13,13,21,346,17007,3528,-5771,-1045,5336,3706,
1530,7,27,2023,13,13,21,356,15500,4971,-6283,-315,3048,1787,
1531,7,27,2023,13,13,21,376,14263,4613,-4071,-1457,-982,-199,
1532,7,27,2023,13,13,21,386,10899,-293,-4991,3,-2895,274,
1533,7,27,2023,13,13,21,396,21266,636,-15335,6328,-8198,-2061,
1534,7,27,2023,13,13,21,406,5526,9560,-1306,8964,-15268,-9710,
1535,7,27,2023,13,13,21,416,32767,-2426,18973,6049,-18668,-13070,
1536,7,27,2023,13,13,21,426,18859,-3060,15145,7317,-9778,-8228,
1537,7,27,2023,13,13,21,436,-3043,-3025,11006,4966,-7566,-4880,
1538,7,27,2023,13,13,21,446,6935,-3499,11995,4397,-6142,-5098,
1539,7,27,2023,13,13,21,456,12235,2476,2031,4024,-482,-4108,
1540,7,27,2023,13,13,21,466,3096,4048,1004,2432,-81,-2974,
1541,7,27,2023,13,13,21,476,-210,3201,1429,1751,-609,-1911,
1542,7,27,2023,13,13,21,486,2007,-3034,4696,1361,122,-994,
1543,7,27,2023,13,13,21,496,5830,-3388,7376,1319,893,-546,
1544,7,27,2023,13,13,21,506,5244,-876,7625,1008,-518,-1222,
1545,7,27,2023,13,13,21,516,-209,-492,5660,578,-1570,-1383,
1546,7,27,2023,13,13,21,526,618,463,5260,230,-1726,-1129,
1547,7,27,2023,13,13,21,536,2539,-155,6206,-407,-2558,-745,
1548,7,27,2023,13,13,21,546,4892,-342,6052,-908,-4008,-550,
1549,7,27,2023,13,13,21,556,1449,-954,7368,-1405,-6341,-865,
1550,7,27,2023,13,13,21,566,-1234,-1981,8155,-1643,-8282,-1038,
1551,7,27,2023,13,13,21,576,-832,-2930,7696,-1586,-10517,-1485,
1552,7,27,2023,13,13,21,586,-866,-3409,6319,-585,-12995,-2008,
1553,7,27,2023,13,13,21,596,1207,-1294,5207,565,-15972,-3682,
1554,7,27,2023,13,13,21,606,-258,-579,6525,62,-18727,-4756,
1555,7,27,2023,13,13,21,616,-470,-120,6411,-1101,-19959,-4819,
1556,7,27,2023,13,13,21,626,2811,-126,5680,-2603,-20951,-4569,
1557,7,27,2023,13,13,21,636,8529,-297,3602,-3892,-21350,-4067,
1558,7,27,2023,13,13,21,646,13343,-1659,4908,-4556,-20189,-3513,
1559,7,27,2023,13,13,21,656,9853,-3752,3889,-4929,-16336,-3041,
1560,7,27,2023,13,13,21,666,9069,-3321,3262,-4516,-13317,-3568,
1561,7,27,2023,13,13,21,676,7014,645,2456,-4428,-10829,-4079,
1562,7,27,2023,13,13,21,686,333,2942,-288,-6095,-9982,-5123,
1563,7,27,2023,13,13,21,696,6628,1151,-1281,-8618,-11190,-6948,
1564,7,27,2023,13,13,21,706,13476,-2423,2983,-9224,-9974,-7832,
1565,7,27,2023,13,13,21,716,8151,-5424,3092,-8368,-5214,-7353,
1566,7,27,2023,13,13,21,726,6640,-6713,3095,-5664,-2804,-7279,
1567,7,27,2023,13,13,21,736,6881,-6263,4563,-2191,-2143,-7325,
1568,7,27,2023,13,13,21,746,6684,-5323,5151,457,-1763,-7450,
1569,7,27,2023,13,13,21,756,6680,-4918,5567,1957,-1923,-7685,
1570,7,27,2023,13,13,21,766,6239,-4329,6177,2649,-2263,-7906,
1571,7,27,2023,13,13,21,776,5518,-3495,6721,2554,-2761,-8091,
1572,7,27,2023,13,13,21,786,5225,-2939,7206,1706,-3432,-8165,
1573,7,27,2023,13,13,21,796,5313,-2930,7342,465,-4019,-8067,
1574,7,27,2023,13,13,21,806,5680,-3171,7534,-697,-4341,-7919,
1575,7,27,2023,13,13,21,816,6477,-3550,7934,-1539,-4340,-7684,
1576,7,27,2023,13,13,21,826,7418,-4382,8259,-1944,-3858,-7337,
1577,7,27,2023,13,13,21,836,7815,-5559,8103,-1648,-2743,-6876,
1578,7,27,2023,13,13,21,846,7268,-6728,7248,-390,-961,-6169,
1579,7,27,2023,13,13,21,856,6269,-7080,6558,1753,1228,-5170,
1580,7,27,2023,13,13,21,866,4422,-6873,6202,4286,3371,-3672,
1581,7,27,2023,13,13,21,876,2934,-5752,5381,6586,5098,-2090,
1582,7,27,2023,13,13,21,886,1836,-3923,4038,7822,6731,-626,
1583,7,27,2023,13,13,21,896,596,-2406,3020,7687,8479,1000,
1584,7,27,2023,13,13,21,906,-419,-1250,2665,6299,10013,2558,
1585,7,27,2023,13,13,21,916,-826,-508,2467,3823,11189,3913,
1586,7,27,2023,13,13,21,926,-26,-674,2391,762,12087,5132,
1587,7,27,2023,13,13,21,936,1368,-1526,2294,-1933,13002,6290,
1588,7,27,2023,13,13,21,946,2538,-2353,2322,-3600,14083,7204,
1589,7,27,2023,13,13,21,956,3773,-2574,2592,-4411,15178,7794,
1590,7,27,2023,13,13,21,966,5136,-2495,2839,-4833,16244,8207,
1591,7,27,2023,13,13,21,976,5803,-2434,3032,-5028,17174,8537,
1592,7,27,2023,13,13,21,986,5792,-2319,3287,-5121,17654,8798,
1593,7,27,2023,13,13,21,996,5875,-2291,3647,-5195,17564,9061,
1594,7,27,2023,13,13,22,6,6214,-2357,4087,-5074,17172,9467,
1595,7,27,2023,13,13,22,16,7405,-2805,4225,-4769,16746,10062,
1596,7,27,2023,13,13,22,26,8504,-3506,4237,-4285,16541,10920,
1597,7,27,2023,13,13,22,36,8400,-2578,4800,-3190,16306,12070,
1598,7,27,2023,13,13,22,46,8150,-482,5870,-2508,15802,13166,
1599,7,27,2023,13,13,22,56,9494,323,6522,-3451,15266,13725,
1600,7,27,2023,13,13,22,66,11818,107,5641,-5240,14887,13450,
1601,7,27,2023,13,13,22,76,13824,-1946,4055,-6736,14887,12372,
1602,7,27,2023,13,13,22,86,14433,-3346,2370,-6278,14976,10782,
1603,7,27,2023,13,13,22,96,15128,-2165,1815,-4357,14495,8995,
1604,7,27,2023,13,13,22,106,16050,472,2120,-2934,13444,7259,
1605,7,27,2023,13,13,22,116,17514,2530,1828,-3527,12209,5726,
1606,7,27,2023,13,13,22,126,18413,3083,-97,-5513,10894,4581,
1607,7,27,2023,13,13,22,136,18382,2896,-3277,-6638,9213,3535,
1608,7,27,2023,13,13,22,146,17667,3386,-6309,-5800,6997,2271,
1609,7,27,2023,13,13,22,156,16257,4151,-7513,-3853,4299,591,
1610,7,27,2023,13,13,22,166,16135,4540,-6052,-2192,1651,-971,
1611,7,27,2023,13,13,22,176,15690,4915,-4318,-1071,-263,-1418,
1612,7,27,2023,13,13,22,186,13371,3944,-3760,-458,-1534,-639,
1613,7,27,2023,13,13,22,196,11094,-1870,-8531,2431,-4253,-549,
1614,7,27,2023,13,13,22,206,11129,1505,-13359,9165,-11528,-5432,
1615,7,27,2023,13,13,22,216,17520,6890,11015,8934,-18963,-13072,
1616,7,27,2023,13,13,22,236,9197,1026,13455,7608,-8956,-7230,
1617,7,27,2023,13,13,22,246,8542,-3682,13061,5592,-7224,-6133,
1618,7,27,2023,13,13,22,256,9522,374,6922,5581,-1321,-5068,
1619,7,27,2023,13,13,22,266,1369,3112,1668,3645,1132,-3415,
1620,7,27,2023,13,13,22,276,-443,2213,911,2698,95,-2739,
1621,7,27,2023,13,13,22,286,3791,-546,747,1927,184,-1554,
1622,7,27,2023,13,13,22,296,9405,-67,6334,1626,660,-1289,
1623,7,27,2023,13,13,22,306,1034,-1257,10147,1009,522,-823,
1624,7,27,2023,13,13,22,316,-2331,-3372,7865,679,-69,-921,
1625,7,27,2023,13,13,22,326,740,-1754,6057,400,-1743,-1515,
1626,7,27,2023,13,13,22,336,6710,1447,3788,37,-2996,-1687,
1627,7,27,2023,13,13,22,346,2557,554,4709,-431,-3947,-1594,
1628,7,27,2023,13,13,22,356,-23,-995,6792,-877,-4660,-1142,
1629,7,27,2023,13,13,22,366,877,-1734,8043,-1144,-6223,-873,
1630,7,27,2023,13,13,22,376,820,-2344,7860,-1189,-8375,-766,
1631,7,27,2023,13,13,22,386,2363,-1713,6458,-891,-11161,-1651,
1632,7,27,2023,13,13,22,396,-1405,-3048,6392,-196,-13895,-2525,
1633,7,27,2023,13,13,22,406,-1807,-1664,6592,1274,-15774,-3716,
1634,7,27,2023,13,13,22,416,-21,-612,6102,971,-17381,-4690,
1635,7,27,2023,13,13,22,426,1799,998,3867,-324,-18945,-4633,
1636,7,27,2023,13,13,22,436,6949,-98,5479,-1725,-20790,-4615,
1637,7,27,2023,13,13,22,446,8442,-1939,6710,-3191,-19866,-3965,
1638,7,27,2023,13,13,22,456,10390,-2818,5793,-3864,-17500,-3667,
1639,7,27,2023,13,13,22,466,11745,-3889,3827,-4234,-14439,-3455,
1640,7,27,2023,13,13,22,476,8990,-2508,1764,-3962,-11590,-4243,
1641,7,27,2023,13,13,22,486,4042,246,561,-3672,-10504,-5118,
1642,7,27,2023,13,13,22,496,3547,2032,-1452,-4421,-11286,-5715,
1643,7,27,2023,13,13,22,506,12870,511,1900,-6007,-11307,-6282,
1644,7,27,2023,13,13,22,516,8815,-2086,4204,-7461,-7416,-5643,
1645,7,27,2023,13,13,22,526,5549,-3704,3721,-7125,-4303,-5532,
1646,7,27,2023,13,13,22,536,5802,-4902,4095,-5505,-3459,-5911,
1647,7,27,2023,13,13,22,546,5554,-4862,4875,-3404,-2760,-6703,
1648,7,27,2023,13,13,22,556,5913,-5173,5417,-1518,-2617,-7342,
1649,7,27,2023,13,13,22,566,6354,-5521,5965,186,-2833,-8014,
1650,7,27,2023,13,13,22,576,6044,-5165,6820,1579,-3052,-8736,
1651,7,27,2023,13,13,22,586,5652,-4317,7462,2255,-3467,-9216,
1652,7,27,2023,13,13,22,596,5339,-3511,7947,2123,-3915,-9353,
1653,7,27,2023,13,13,22,606,5509,-3042,8311,1338,-4300,-9170,
1654,7,27,2023,13,13,22,616,6037,-3341,8543,240,-4410,-8768,
1655,7,27,2023,13,13,22,626,6746,-4274,9010,-522,-4141,-8255,
1656,7,27,2023,13,13,22,636,7469,-5389,9339,-599,-3462,-7640,
1657,7,27,2023,13,13,22,646,7642,-6781,8838,80,-2218,-7015,
1658,7,27,2023,13,13,22,656,7382,-7763,7543,1694,-240,-6256,
1659,7,27,2023,13,13,22,666,5729,-7965,6509,4130,2276,-4909,
1660,7,27,2023,13,13,22,676,3598,-7664,5740,6983,4338,-3123,
1661,7,27,2023,13,13,22,686,1997,-5826,4733,9233,5770,-1571,
1662,7,27,2023,13,13,22,696,706,-3599,3350,9848,7082,61,
1663,7,27,2023,13,13,22,706,56,-1825,2565,8803,8419,1916,
1664,7,27,2023,13,13,22,716,101,-995,2186,6209,9757,3635,
1665,7,27,2023,13,13,22,726,83,-1501,1582,2734,11039,5087,
1666,7,27,2023,13,13,22,736,554,-2641,1110,-268,12097,6270,
1667,7,27,2023,13,13,22,746,1658,-3301,1108,-2060,13089,7083,
1668,7,27,2023,13,13,22,756,2993,-3317,1439,-2964,14149,7577,
1669,7,27,2023,13,13,22,766,4321,-2924,1825,-3638,15251,7906,
1670,7,27,2023,13,13,22,776,5245,-2663,2127,-4336,16231,8282,
1671,7,27,2023,13,13,22,786,5508,-2642,2334,-4763,16827,8717,
1672,7,27,2023,13,13,22,796,5192,-2482,2644,-4858,16948,9146,
1673,7,27,2023,13,13,22,806,5002,-1957,3024,-4814,16650,9526,
1674,7,27,2023,13,13,22,816,5176,-1350,3403,-4941,16236,9793,
1675,7,27,2023,13,13,22,826,5602,-1296,3737,-5453,15916,10012,
1676,7,27,2023,13,13,22,836,6313,-2180,4196,-5924,15762,10277,
1677,7,27,2023,13,13,22,846,7615,-2509,4853,-5834,15782,10693,
1678,7,27,2023,13,13,22,856,8430,-242,5319,-5318,15856,11416,
1679,7,27,2023,13,13,22,866,9182,-1028,5347,-5569,15770,12196,
1680,7,27,2023,13,13,22,876,9804,-2260,5065,-5458,15389,12278,
1681,7,27,2023,13,13,22,886,11621,-1956,5059,-4568,14807,11808,
1682,7,27,2023,13,13,22,896,14005,-373,5049,-3756,14364,11190,
1683,7,27,2023,13,13,22,906,15869,1546,4442,-3798,13886,10525,
1684,7,27,2023,13,13,22,916,17177,2340,3347,-4783,13000,9682,
1685,7,27,2023,13,13,22,926,18327,1779,1778,-5823,11667,8474,
1686,7,27,2023,13,13,22,936,19558,1009,-711,-5672,10099,6933,
1687,7,27,2023,13,13,22,946,19528,1049,-3833,-3732,8534,4966,
1688,7,27,2023,13,13,22,956,18133,2870,-6188,-1283,6618,2214,
1689,7,27,2023,13,13,22,966,17352,5219,-6809,-785,4376,-936,
1690,7,27,2023,13,13,22,976,16324,5220,-5829,-2008,2311,-3109,
1691,7,27,2023,13,13,22,986,15421,3954,-4575,-2692,332,-3340,
1692,7,27,2023,13,13,22,996,11376,-1844,-4931,-1071,-1607,-2223,
1693,7,27,2023,13,13,23,6,18664,-2559,-14896,6625,-7058,-3646,
1694,7,27,2023,13,13,23,16,3318,7609,-2045,10750,-15076,-10443,
1695,7,27,2023,13,13,23,26,31341,-5472,20024,6699,-19798,-13309,
1696,7,27,2023,13,13,23,36,21490,-3248,16153,8671,-12144,-8279,
1697,7,27,2023,13,13,23,46,7823,3515,12779,5319,-8859,-4973,
1698,7,27,2023,13,13,23,56,8434,-1351,13708,4903,-5803,-5478,
1699,7,27,2023,13,13,23,66,5382,-1672,1339,4082,875,-4208,
1700,7,27,2023,13,13,23,76,113,2515,796,2636,634,-2254,
1701,7,27,2023,13,13,23,96,7662,-392,2804,1681,458,-1523,
1702,7,27,2023,13,13,23,106,1876,-2901,8664,1115,1328,-504,
1703,7,27,2023,13,13,23,116,-2563,-3766,9730,1103,1152,-706,
1704,7,27,2023,13,13,23,126,1029,-2151,6498,966,-878,-1605,
1705,7,27,2023,13,13,23,136,6241,1967,3798,637,-2766,-2033,
1706,7,27,2023,13,13,23,146,3021,1989,4178,9,-3158,-1519,
1707,7,27,2023,13,13,23,156,566,-457,5792,-638,-3284,-544,
1708,7,27,2023,13,13,23,166,1229,-1384,7283,-982,-4426,-229,
1709,7,27,2023,13,13,23,176,2223,-1151,7246,-1312,-6338,-340,
1710,7,27,2023,13,13,23,186,2122,-1255,7284,-1575,-9213,-1058,
1711,7,27,2023,13,13,23,196,-141,-2194,7495,-1411,-11765,-1477,
1712,7,27,2023,13,13,23,206,-2389,-3423,6730,-395,-13434,-1884,
1713,7,27,2023,13,13,23,216,-1249,-1429,6841,799,-15724,-3051,
1714,7,27,2023,13,13,23,226,1496,-502,4701,187,-18272,-4283,
1715,7,27,2023,13,13,23,236,662,-19,5865,-754,-20724,-4975,
1716,7,27,2023,13,13,23,246,2139,-528,6165,-2294,-21647,-4601,
1717,7,27,2023,13,13,23,256,7898,-1362,6134,-3688,-21698,-3915,
1718,7,27,2023,13,13,23,266,11182,-1897,3939,-4424,-19650,-3268,
1719,7,27,2023,13,13,23,276,11536,-1447,1609,-4425,-17317,-3200,
1720,7,27,2023,13,13,23,286,13301,-2301,3730,-4368,-14367,-3502,
1721,7,27,2023,13,13,23,296,7613,-3015,2291,-4428,-9898,-3685,
1722,7,27,2023,13,13,23,306,-257,994,-221,-4298,-8794,-4331,
1723,7,27,2023,13,13,23,316,5752,1435,-1397,-5468,-10798,-5182,
1724,7,27,2023,13,13,23,326,12566,-614,3275,-6399,-10340,-5722,
1725,7,27,2023,13,13,23,336,6588,-2219,4092,-7261,-6368,-5105,
1726,7,27,2023,13,13,23,346,5519,-3478,3374,-6547,-4517,-4818,
1727,7,27,2023,13,13,23,356,6228,-4676,4083,-4758,-3903,-5013,
1728,7,27,2023,13,13,23,366,6116,-4599,4747,-2681,-3058,-5612,
1729,7,27,2023,13,13,23,376,6777,-4842,5055,-809,-2737,-6227,
1730,7,27,2023,13,13,23,386,6733,-4973,5768,742,-2639,-7075,
1731,7,27,2023,13,13,23,396,6130,-4591,6569,1616,-2808,-8038,
1732,7,27,2023,13,13,23,406,6048,-4007,7213,1740,-3330,-8932,
1733,7,27,2023,13,13,23,416,6302,-3519,7750,1153,-3833,-9629,
1734,7,27,2023,13,13,23,426,6864,-3272,8125,13,-4011,-9962,
1735,7,27,2023,13,13,23,436,7828,-3395,8548,-1300,-3721,-9916,
1736,7,27,2023,13,13,23,446,8773,-4381,8671,-2477,-2890,-9546,
1737,7,27,2023,13,13,23,456,9024,-6369,8064,-2788,-1365,-8930,
1738,7,27,2023,13,13,23,466,8136,-7891,6757,-1474,781,-8075,
1739,7,27,2023,13,13,23,476,6293,-8155,5951,1057,3170,-6925,
1740,7,27,2023,13,13,23,486,4325,-7835,5302,3881,5117,-5486,
1741,7,27,2023,13,13,23,496,3000,-7363,3980,6411,6616,-4066,
1742,7,27,2023,13,13,23,506,1678,-6171,2477,8339,8034,-2793,
1743,7,27,2023,13,13,23,516,682,-4021,1797,9190,9372,-1390,
1744,7,27,2023,13,13,23,526,141,-1846,1905,8095,10596,399,
1745,7,27,2023,13,13,23,536,-77,-914,1905,5107,11563,2539,
1746,7,27,2023,13,13,23,546,92,-1498,1569,1163,12221,4600,
1747,7,27,2023,13,13,23,556,1270,-2969,1186,-2171,12671,6392,
1748,7,27,2023,13,13,23,566,2660,-3701,1216,-3894,13295,7640,
1749,7,27,2023,13,13,23,576,3985,-3331,1776,-4616,14078,8390,
1750,7,27,2023,13,13,23,586,5493,-2748,2360,-5190,14987,8987,
1751,7,27,2023,13,13,23,596,5946,-2532,2702,-5680,15986,9572,
1752,7,27,2023,13,13,23,606,5633,-2353,3039,-5985,16680,9975,
1753,7,27,2023,13,13,23,616,5194,-2032,3410,-6077,16847,10237,
1754,7,27,2023,13,13,23,626,4871,-1349,4000,-6025,16574,10383,
1755,7,27,2023,13,13,23,636,5319,-945,4493,-6239,16116,10475,
1756,7,27,2023,13,13,23,646,5987,-1738,4892,-6722,15889,10555,
1757,7,27,2023,13,13,23,656,6706,-3203,5479,-6702,15852,10739,
1758,7,27,2023,13,13,23,666,7685,-2268,6325,-5874,15930,11048,
1759,7,27,2023,13,13,23,676,8950,754,6541,-5562,15843,11654,
1760,7,27,2023,13,13,23,686,10645,-501,5970,-6798,15708,12200,
1761,7,27,2023,13,13,23,696,11872,-2340,5112,-7208,15347,12091,
1762,7,27,2023,13,13,23,706,14181,-2252,4553,-5997,14818,11745,
1763,7,27,2023,13,13,23,716,18524,1571,3231,-3459,13245,10800,
1764,7,27,2023,13,13,23,726,20278,2400,1188,-4020,12133,9672,
1765,7,27,2023,13,13,23,736,20679,2265,-1461,-4644,10586,8184,
1766,7,27,2023,13,13,23,746,21092,2453,-4586,-3888,8337,6347,
1767,7,27,2023,13,13,23,756,19852,3878,-7279,-2285,5846,3841,
1768,7,27,2023,13,13,23,766,18148,5917,-7905,-1691,3190,856,
1769,7,27,2023,13,13,23,776,16594,5419,-6417,-2214,791,-1481,
1770,7,27,2023,13,13,23,786,14344,2655,-4859,-2154,-1019,-2093,
1771,7,27,2023,13,13,23,796,16294,-1702,-10313,2257,-4227,-2243,
1772,7,27,2023,13,13,23,806,13511,6275,-14012,9364,-11017,-5894,
1773,7,27,2023,13,13,23,816,19387,6645,12703,7422,-19258,-11704,
1774,7,27,2023,13,13,23,826,32072,-9179,22064,5615,-15195,-8786,
1775,7,27,2023,13,13,23,836,2422,3543,10583,6116,-7045,-5763,
1776,7,27,2023,13,13,23,846,4379,-5341,11452,3853,-9168,-6463,
1777,7,27,2023,13,13,23,856,10285,-3765,6319,5053,-3307,-5372,
1778,7,27,2023,13,13,23,866,1743,2493,1294,4089,831,-3614,
1779,7,27,2023,13,13,23,876,5888,5094,-779,3038,-356,-3238,
1780,7,27,2023,13,13,23,886,4821,655,2308,2276,-358,-2111,
1781,7,27,2023,13,13,23,896,1857,-2933,7188,2001,1219,-883,
1782,7,27,2023,13,13,23,906,517,-2625,10040,1619,1203,-597,
1783,7,27,2023,13,13,23,916,2196,-1578,7209,1110,-631,-1177,
1784,7,27,2023,13,13,23,926,4857,979,4290,597,-2423,-1584,
1785,7,27,2023,13,13,23,936,2448,834,5046,-55,-2715,-1114,
1786,7,27,2023,13,13,23,956,659,-1195,7895,-1122,-4885,-481,
1787,7,27,2023,13,13,23,966,2053,-917,7697,-1535,-7310,-854,
1788,7,27,2023,13,13,23,976,1331,-2120,7472,-1790,-10782,-1431,
1789,7,27,2023,13,13,23,986,-957,-3445,7437,-1220,-13283,-1744,
1790,7,27,2023,13,13,23,996,-2604,-2701,6644,249,-15042,-2702,
1791,7,27,2023,13,13,24,6,-598,-416,5909,462,-17314,-4071,
1792,7,27,2023,13,13,24,16,1938,783,4086,-547,-19682,-4902,
1793,7,27,2023,13,13,24,26,2364,362,5547,-1930,-21530,-4763,
1794,7,27,2023,13,13,24,36,5370,-564,5715,-3577,-21532,-3925,
1795,7,27,2023,13,13,24,46,10569,-2028,5907,-4543,-20266,-3236,
1796,7,27,2023,13,13,24,56,11350,-1127,3025,-4942,-17375,-2587,
1797,7,27,2023,13,13,24,66,13430,-2814,1449,-5033,-15207,-3446,
1798,7,27,2023,13,13,24,76,12581,-4243,778,-4756,-11377,-4232,
1799,7,27,2023,13,13,24,86,3425,101,-1052,-4470,-8214,-5994,
1800,7,27,2023,13,13,24,96,4333,2384,-2623,-5982,-9089,-8081,
1801,7,27,2023,13,13,24,106,13393,192,2021,-6995,-9844,-9178,
1802,7,27,2023,13,13,24,116,8133,-1283,4192,-7996,-6223,-8351,
1803,7,27,2023,13,13,24,126,6161,-2616,3094,-7980,-4340,-7792,
1804,7,27,2023,13,13,24,136,6928,-4155,3442,-6764,-3985,-7959,
1805,7,27,2023,13,13,24,146,6966,-5276,3910,-4887,-3192,-8434,
1806,7,27,2023,13,13,24,156,7895,-7061,4546,-2328,-2998,-8947,
1807,7,27,2023,13,13,24,166,7727,-7833,5313,801,-3122,-9584,
1808,7,27,2023,13,13,24,176,6967,-6882,6399,3545,-3618,-10287,
1809,7,27,2023,13,13,24,186,6769,-5033,7442,4937,-4446,-10721,
1810,7,27,2023,13,13,24,196,6865,-3127,8179,4647,-5179,-10580,
1811,7,27,2023,13,13,24,206,7221,-1822,8678,2808,-5561,-9806,
1812,7,27,2023,13,13,24,216,7775,-1981,8913,104,-5408,-8660,
1813,7,27,2023,13,13,24,226,8327,-3606,9012,-2190,-4720,-7559,
1814,7,27,2023,13,13,24,236,8497,-5696,8628,-3062,-3531,-6750,
1815,7,27,2023,13,13,24,246,7749,-7866,7686,-2024,-1793,-6189,
1816,7,27,2023,13,13,24,256,6430,-8840,6297,819,385,-5513,
1817,7,27,2023,13,13,24,266,4673,-8248,5428,4385,2672,-4452,
1818,7,27,2023,13,13,24,276,2982,-7222,4772,7606,4565,-3065,
1819,7,27,2023,13,13,24,286,1530,-5469,3788,9752,6183,-1619,
1820,7,27,2023,13,13,24,296,-28,-3533,2639,10281,7694,-26,
1821,7,27,2023,13,13,24,306,-1522,-1541,1967,9065,9131,1762,
1822,7,27,2023,13,13,24,316,-1686,-403,2005,5961,10265,3582,
1823,7,27,2023,13,13,24,326,-784,-1254,1685,1912,11129,5448,
1824,7,27,2023,13,13,24,336,185,-3043,1157,-1208,11958,7135,
1825,7,27,2023,13,13,24,346,1457,-3993,1191,-2543,12898,8371,
1826,7,27,2023,13,13,24,356,2739,-3775,1730,-2669,13903,9167,
1827,7,27,2023,13,13,24,366,3833,-2939,2358,-2678,14911,9690,
1828,7,27,2023,13,13,24,376,4779,-2416,3013,-2996,15884,10043,
1829,7,27,2023,13,13,24,386,5412,-2149,3503,-3443,16752,10316,
1830,7,27,2023,13,13,24,396,5654,-1910,3912,-3887,17396,10568,
1831,7,27,2023,13,13,24,406,5436,-1656,4312,-4171,17667,10671,
1832,7,27,2023,13,13,24,416,5442,-1070,4672,-4468,17553,10551,
1833,7,27,2023,13,13,24,426,5653,-881,4915,-5030,17277,10273,
1834,7,27,2023,13,13,24,436,6142,-1504,5228,-5682,17119,9863,
1835,7,27,2023,13,13,24,446,6928,-2689,5914,-5949,17085,9586,
1836,7,27,2023,13,13,24,456,8555,-2720,6714,-5589,17142,9448,
1837,7,27,2023,13,13,24,466,10603,-524,7027,-5499,17232,9655,
1838,7,27,2023,13,13,24,476,11872,-2173,6520,-6361,17493,10202,
1839,7,27,2023,13,13,24,486,12907,-3911,5729,-6218,17422,10201,
1840,7,27,2023,13,13,24,496,15316,-3520,4947,-4958,16860,9851,
1841,7,27,2023,13,13,24,506,17744,-1496,4134,-3762,16080,9441,
1842,7,27,2023,13,13,24,516,19891,396,2746,-3634,14899,8916,
1843,7,27,2023,13,13,24,526,20791,1836,634,-4565,13339,8248,
1844,7,27,2023,13,13,24,536,20498,3102,-1988,-5496,11079,7527,
1845,7,27,2023,13,13,24,546,20175,3995,-4910,-5358,7910,6840,
1846,7,27,2023,13,13,24,556,19296,4952,-7480,-3736,4443,5690,
1847,7,27,2023,13,13,24,566,18247,5556,-7826,-1866,1738,3719,
1848,7,27,2023,13,13,24,576,16655,5101,-6322,-495,-90,1542,
1849,7,27,2023,13,13,24,586,16009,5430,-4472,318,-1386,9,
1850,7,27,2023,13,13,24,596,11425,385,-4719,1671,-2781,-811,
1851,7,27,2023,13,13,24,606,18168,389,-15447,6935,-8526,-4165,
1852,7,27,2023,13,13,24,616,5209,6747,1867,8704,-16167,-11838,
1853,7,27,2023,13,13,24,626,32767,-8115,19760,6037,-19456,-12905,
1854,7,27,2023,13,13,24,636,20469,-1481,12467,7393,-10855,-7301,
1855,7,27,2023,13,13,24,646,5081,-253,14149,5216,-8778,-5254,
1856,7,27,2023,13,13,24,656,5769,-1081,11279,5665,-3415,-5337,
1857,7,27,2023,13,13,24,666,2810,915,2394,3986,1326,-3845,
1858,7,27,2023,13,13,24,676,6890,4208,-758,2456,-207,-2639,
1859,7,27,2023,13,13,24,686,4929,2135,761,2014,-315,-2054,
1860,7,27,2023,13,13,24,696,537,-1572,6139,1488,1216,-788,
1861,7,27,2023,13,13,24,706,1207,-2684,9865,1163,1269,-357,
1862,7,27,2023,13,13,24,716,2394,-3193,8091,762,-284,-791,
1863,7,27,2023,13,13,24,726,3850,-1104,5230,460,-2302,-1582,
1864,7,27,2023,13,13,24,736,2032,591,4497,210,-2774,-1579,
1865,7,27,2023,13,13,24,746,1208,764,5859,-228,-3111,-1148,
1866,7,27,2023,13,13,24,756,711,-200,7136,-862,-4400,-829,
1867,7,27,2023,13,13,24,766,2961,-579,7282,-1541,-6688,-727,
1868,7,27,2023,13,13,24,776,1338,-1913,7885,-1785,-9844,-1007,
1869,7,27,2023,13,13,24,786,-150,-2975,7972,-1529,-12079,-1417,
1870,7,27,2023,13,13,24,796,-3509,-3489,6949,-440,-13807,-2364,
1871,7,27,2023,13,13,24,816,2067,-26,4315,-105,-19052,-4943,
1872,7,27,2023,13,13,24,826,1593,67,5889,-1336,-20995,-4854,
1873,7,27,2023,13,13,24,836,4329,-432,5778,-2776,-21365,-4273,
1874,7,27,2023,13,13,24,846,9397,-1951,6589,-3863,-20593,-3756,
1875,7,27,2023,13,13,24,856,9665,-1284,3171,-4432,-17968,-3237,
1876,7,27,2023,13,13,24,866,12978,-2577,1921,-4510,-16174,-3600,
1877,7,27,2023,13,13,24,876,12598,-3352,2438,-4566,-12594,-3682,
1878,7,27,2023,13,13,24,886,4454,-567,226,-4754,-9091,-4436,
1879,7,27,2023,13,13,24,896,242,2409,-2113,-5917,-9440,-5713,
1880,7,27,2023,13,13,24,906,10944,948,1010,-7252,-11034,-7188,
1881,7,27,2023,13,13,24,916,9144,-1218,4353,-8413,-8464,-6612,
1882,7,27,2023,13,13,24,926,4960,-2529,3829,-8307,-5687,-5932,
1883,7,27,2023,13,13,24,936,5750,-3858,4090,-6711,-5292,-5853,
1884,7,27,2023,13,13,24,946,6044,-3866,4912,-4548,-4668,-6052,
1885,7,27,2023,13,13,24,956,6752,-4447,5378,-2249,-4180,-6192,
1886,7,27,2023,13,13,24,966,7616,-5389,5805,53,-4035,-6535,
1887,7,27,2023,13,13,24,976,7225,-5697,6228,2019,-3748,-7309,
1888,7,27,2023,13,13,24,986,6475,-5279,6852,3529,-3740,-8313,
1889,7,27,2023,13,13,24,996,6239,-3949,7588,4203,-4072,-9201,
1890,7,27,2023,13,13,25,6,6418,-2444,8236,3571,-4420,-9688,
1891,7,27,2023,13,13,25,16,6955,-1361,8707,1756,-4566,-9632,
1892,7,27,2023,13,13,25,26,7628,-1656,8776,-622,-4288,-9098,
1893,7,27,2023,13,13,25,36,8226,-3827,8362,-2545,-3471,-8542,
1894,7,27,2023,13,13,25,46,8393,-6479,7299,-2940,-1968,-8360,
1895,7,27,2023,13,13,25,56,7810,-8498,5641,-1207,227,-8048,
1896,7,27,2023,13,13,25,66,6273,-8815,4974,2002,2947,-7173,
1897,7,27,2023,13,13,25,76,4239,-8907,4573,5477,5342,-5617,
1898,7,27,2023,13,13,25,86,2876,-7351,3446,8433,7299,-3992,
1899,7,27,2023,13,13,25,96,1496,-4174,2187,9789,9147,-2354,
1900,7,27,2023,13,13,25,106,487,-1964,1540,8693,10814,-225,
1901,7,27,2023,13,13,25,116,-450,-895,1448,5589,12020,2093,
1902,7,27,2023,13,13,25,126,-1194,-1088,906,1455,12494,4280,
1903,7,27,2023,13,13,25,136,-858,-2346,537,-2136,12391,6187,
1904,7,27,2023,13,13,25,146,580,-3115,840,-4108,12332,7572,
1905,7,27,2023,13,13,25,156,2009,-2932,1511,-4895,12664,8449,
1906,7,27,2023,13,13,25,166,3451,-2407,2307,-5360,13393,8978,
1907,7,27,2023,13,13,25,176,4642,-2059,3092,-5816,14439,9394,
1908,7,27,2023,13,13,25,186,5081,-1809,3494,-6085,15515,9801,
1909,7,27,2023,13,13,25,196,4662,-1518,3927,-6132,16260,10042,
1910,7,27,2023,13,13,25,206,4594,-1166,4428,-6115,16387,10087,
1911,7,27,2023,13,13,25,216,4824,-1034,4880,-6146,16204,10103,
1912,7,27,2023,13,13,25,226,5108,-806,5337,-6142,15965,10208,
1913,7,27,2023,13,13,25,236,5295,-196,5799,-6057,15720,10501,
1914,7,27,2023,13,13,25,246,5857,-1007,6498,-6163,15430,10946,
1915,7,27,2023,13,13,25,256,7134,-1758,7423,-5904,15134,11333,
1916,7,27,2023,13,13,25,266,9081,-1755,7876,-5261,15075,11751,
1917,7,27,2023,13,13,25,276,10995,-1778,7603,-4791,15387,12094,
1918,7,27,2023,13,13,25,286,12648,-2093,6839,-4311,15678,12166,
1919,7,27,2023,13,13,25,296,14851,-1727,5481,-3554,15670,11826,
1920,7,27,2023,13,13,25,306,16814,-482,4125,-2840,15271,11146,
1921,7,27,2023,13,13,25,316,19228,398,2356,-2664,14363,9967,
1922,7,27,2023,13,13,25,326,20895,1128,295,-3277,13341,8233,
1923,7,27,2023,13,13,25,336,20756,2328,-2194,-3976,11705,6416,
1924,7,27,2023,13,13,25,346,20644,3342,-5244,-3991,9106,4687,
1925,7,27,2023,13,13,25,356,19675,4598,-7653,-3377,6313,2465,
1926,7,27,2023,13,13,25,366,18363,5514,-8149,-3099,3574,102,
1927,7,27,2023,13,13,25,376,16716,4285,-6633,-2809,1305,-1417,
1928,7,27,2023,13,13,25,386,15818,3903,-4723,-1608,-438,-1505,
1929,7,27,2023,13,13,25,396,11237,-351,-5551,396,-2384,-592,
1930,7,27,2023,13,13,25,406,18735,399,-15152,5763,-8435,-2635,
1931,7,27,2023,13,13,25,416,4336,5291,430,7911,-16466,-9357,
1932,7,27,2023,13,13,25,426,32767,-6577,20130,5235,-19591,-11232,
1933,7,27,2023,13,13,25,436,20490,-926,12997,6622,-10733,-7650,
1934,7,27,2023,13,13,25,446,4827,-1170,11215,5269,-8365,-6934,
1935,7,27,2023,13,13,25,456,9208,-5782,10153,6097,-4211,-5964,
1936,7,27,2023,13,13,25,466,2887,635,2808,5661,2130,-4559,
1937,7,27,2023,13,13,25,476,2651,3940,566,3838,1225,-3264,
1938,7,27,2023,13,13,25,486,7394,4358,245,3117,442,-2778,
1939,7,27,2023,13,13,25,496,2725,-628,5187,2090,1251,-1214,
1940,7,27,2023,13,13,25,506,482,-2958,9576,1392,1793,-194,
1941,7,27,2023,13,13,25,516,-260,-3771,9132,895,419,-648,
1942,7,27,2023,13,13,25,526,4603,-748,5587,710,-1288,-1483,
1943,7,27,2023,13,13,25,536,3689,1398,4166,500,-2356,-1772,
1944,7,27,2023,13,13,25,546,1012,733,5434,-61,-2743,-1195,
1945,7,27,2023,13,13,25,556,824,-992,6785,-563,-3686,-834,
1946,7,27,2023,13,13,25,566,1525,-1561,7659,-965,-5405,-662,
1947,7,27,2023,13,13,25,576,3360,-1576,7527,-1125,-8144,-960,
1948,7,27,2023,13,13,25,586,123,-2227,8112,-987,-11110,-1449,
1949,7,27,2023,13,13,25,596,-2203,-2849,7355,-753,-12682,-2195,
1950,7,27,2023,13,13,25,606,-3238,-2922,6434,538,-14907,-3228,
1951,7,27,2023,13,13,25,616,600,-569,4965,1354,-17599,-4655,
1952,7,27,2023,13,13,25,626,2341,-346,5103,506,-20160,-5541,
1953,7,27,2023,13,13,25,636,2339,194,6177,-1014,-21095,-5212,
1954,7,27,2023,13,13,25,646,6775,-724,6377,-2723,-20986,-4722,
1955,7,27,2023,13,13,25,656,9183,-1634,5510,-3869,-19336,-4136,
1956,7,27,2023,13,13,25,676,11254,-1390,2787,-4935,-15177,-4182,
1957,7,27,2023,13,13,25,686,8022,-2671,1405,-5658,-11970,-4508,
1958,7,27,2023,13,13,25,696,1931,-628,-757,-5366,-10710,-5427,
1959,7,27,2023,13,13,25,706,5984,563,-1597,-5239,-12024,-6290,
1960,7,27,2023,13,13,25,716,13000,-434,3206,-5667,-11549,-6225,
1961,7,27,2023,13,13,25,726,6839,-1826,4314,-6408,-7376,-4949,
1962,7,27,2023,13,13,25,736,5450,-3166,3680,-5760,-5560,-4204,
1963,7,27,2023,13,13,25,746,5944,-3726,4573,-4028,-5062,-4113,
1964,7,27,2023,13,13,25,756,5816,-3621,5178,-2278,-4462,-4407,
1965,7,27,2023,13,13,25,766,6517,-4079,5508,-710,-4320,-4923,
1966,7,27,2023,13,13,25,776,6643,-4598,6031,646,-4120,-5774,
1967,7,27,2023,13,13,25,786,6310,-4772,6654,1700,-3928,-6862,
1968,7,27,2023,13,13,25,796,6074,-4299,7254,2409,-3870,-7900,
1969,7,27,2023,13,13,25,806,6149,-3304,8050,2351,-3836,-8727,
1970,7,27,2023,13,13,25,816,6993,-2684,8862,1325,-3737,-9163,
1971,7,27,2023,13,13,25,826,8275,-3239,9407,-300,-3260,-9258,
1972,7,27,2023,13,13,25,836,9117,-5118,9214,-1705,-2049,-9168,
1973,7,27,2023,13,13,25,846,8549,-7513,8287,-1795,-62,-9005,
1974,7,27,2023,13,13,25,856,6963,-8581,7040,-34,2160,-8648,
1975,7,27,2023,13,13,25,866,5421,-7850,6314,2505,4242,-7812,
1976,7,27,2023,13,13,25,876,3826,-6922,5670,4675,5979,-6515,
1977,7,27,2023,13,13,25,886,2771,-6277,4510,6207,7364,-4965,
1978,7,27,2023,13,13,25,896,1652,-5368,3166,7061,8721,-3273,
1979,7,27,2023,13,13,25,906,975,-3786,2547,7049,10059,-1362,
1980,7,27,2023,13,13,25,916,719,-2232,2611,5694,11249,945,
1981,7,27,2023,13,13,25,926,890,-1763,2463,3012,12206,3386,
1982,7,27,2023,13,13,25,936,1263,-2344,1935,6,12911,5622,
1983,7,27,2023,13,13,25,946,2215,-3030,1668,-2171,13430,7438,
1984,7,27,2023,13,13,25,956,3308,-3043,2018,-3385,13949,8606,
1985,7,27,2023,13,13,25,966,4513,-2561,2451,-4277,14573,9281,
1986,7,27,2023,13,13,25,976,5366,-2385,2907,-5048,15434,9770,
1987,7,27,2023,13,13,25,986,5458,-2207,3178,-5527,16275,10093,
1988,7,27,2023,13,13,25,996,5013,-1891,3476,-5811,16701,10161,
1989,7,27,2023,13,13,26,6,4597,-1518,3956,-6012,16556,10031,
1990,7,27,2023,13,13,26,16,4468,-1169,4718,-6278,16049,9822,
1991,7,27,2023,13,13,26,26,5147,-1215,5207,-6687,15532,9697,
1992,7,27,2023,13,13,26,36,5747,-2101,5592,-7049,15413,9766,
1993,7,27,2023,13,13,26,46,6324,-2671,6162,-7004,15404,10067,
1994,7,27,2023,13,13,26,56,6842,-1317,7128,-6580,15274,10775,
1995,7,27,2023,13,13,26,66,8022,-1200,7857,-6509,15020,11852,
1996,7,27,2023,13,13,26,76,10338,-1761,7467,-6795,14852,12632,
1997,7,27,2023,13,13,26,86,12555,-2603,6489,-6599,14882,13010,
1998,7,27,2023,13,13,26,96,14786,-2178,4926,-5333,14870,12973,
1999,7,27,2023,13,13,26,106,17090,-564,3213,-3768,14573,12425,
2000,7,27,2023,13,13,26,116,19590,518,1597,-3041,13723,11196,
2001,7,27,2023,13,13,26,126,21806,1154,-44,-3179,12331,9368,
2002,7,27,2023,13,13,26,136,22345,2709,-2432,-3419,10415,7399,
2003,7,27,2023,13,13,26,146,21746,4702,-5498,-3629,7728,5324,
2004,7,27,2023,13,13,26,156,20863,6669,-7701,-4301,4427,2700,
2005,7,27,2023,13,13,26,166,19606,6192,-7438,-5094,1690,-41,
2006,7,27,2023,13,13,26,176,17497,4041,-5917,-4239,-175,-1355,
2007,7,27,2023,13,13,26,186,13955,643,-5952,-1021,-1966,-1641,
2008,7,27,2023,13,13,26,196,22830,1180,-16223,5680,-6959,-3814,
2009,7,27,2023,13,13,26,206,3737,8742,-5291,9681,-14599,-11647,
2010,7,27,2023,13,13,26,216,31092,-7535,19457,6055,-20324,-14702,
2011,7,27,2023,13,13,26,226,21237,-7578,15763,7942,-12733,-9055,
2012,7,27,2023,13,13,26,236,8040,256,11457,6041,-9141,-6131,
2013,7,27,2023,13,13,26,246,13517,-1559,13936,6670,-4937,-6084,
2014,7,27,2023,13,13,26,256,3278,1364,3913,5214,1956,-4291,
2015,7,27,2023,13,13,26,266,-1902,3511,1880,2782,501,-2512,
