Packet #, Month, Day, Year, Hour, Minute, Second, MS, ACC X, ACC Y, ACC Z, GYR X, GYR Y, GYR Z
1,7,28,2023,11,5,15,615,2211,-562,3435,-1,2,4,
2,7,28,2023,11,5,15,625,2212,-560,3430,-3,3,2,
3,7,28,2023,11,5,15,635,2210,-564,3428,0,5,2,
4,7,28,2023,11,5,15,645,2207,-571,3433,1,11,3,
5,7,28,2023,11,5,15,655,2205,-566,3429,4,9,3,
6,7,28,2023,11,5,15,665,2209,-558,3441,5,10,1,
7,7,28,2023,11,5,15,675,2206,-564,3444,4,5,3,
8,7,28,2023,11,5,15,685,2204,-560,3440,4,8,6,
9,7,28,2023,11,5,15,695,2214,-566,3443,1,6,4,
10,7,28,2023,11,5,15,705,2218,-566,3438,3,6,3,
11,7,28,2023,11,5,15,715,2212,-564,3441,5,5,5,
12,7,28,2023,11,5,15,725,2211,-565,3438,1,8,1,
13,7,28,2023,11,5,15,735,2213,-560,3439,2,7,-1,
14,7,28,2023,11,5,15,745,2204,-562,3441,3,8,-3,
15,7,28,2023,11,5,15,755,2207,-563,3440,3,4,1,
16,7,28,2023,11,5,15,765,2209,-562,3431,4,3,2,
17,7,28,2023,11,5,15,775,2207,-564,3430,-2,3,-1,
18,7,28,2023,11,5,15,785,2202,-566,3437,-1,4,-1,
19,7,28,2023,11,5,15,795,2204,-559,3436,4,4,4,
20,7,28,2023,11,5,15,805,2209,-559,3435,-1,3,4,
21,7,28,2023,11,5,15,815,2212,-551,3435,0,7,3,
22,7,28,2023,11,5,15,825,2210,-556,3439,1,5,3,
23,7,28,2023,11,5,15,835,2211,-558,3436,-2,1,4,
24,7,28,2023,11,5,15,845,2206,-553,3436,-2,0,5,
25,7,28,2023,11,5,15,855,2205,-561,3437,-3,2,3,
26,7,28,2023,11,5,15,865,2209,-565,3438,-3,-2,5,
27,7,28,2023,11,5,15,875,2209,-561,3442,0,3,4,
28,7,28,2023,11,5,15,885,2204,-563,3444,-3,5,0,
29,7,28,2023,11,5,15,895,2209,-562,3437,-2,3,1,
30,7,28,2023,11,5,15,905,2197,-561,3442,-3,2,6,
31,7,28,2023,11,5,15,915,2208,-564,3439,-3,4,6,
32,7,28,2023,11,5,15,925,2219,-565,3437,-5,4,1,
33,7,28,2023,11,5,15,935,2205,-559,3432,-4,5,0,
34,7,28,2023,11,5,15,945,2206,-564,3444,-2,5,0,
35,7,28,2023,11,5,15,955,2212,-565,3436,2,3,2,
36,7,28,2023,11,5,15,965,2217,-554,3429,-1,6,2,
37,7,28,2023,11,5,15,975,2210,-561,3431,0,8,1,
38,7,28,2023,11,5,15,985,2208,-563,3432,-4,8,3,
39,7,28,2023,11,5,15,995,2204,-573,3437,-7,9,8,
40,7,28,2023,11,5,16,5,2212,-565,3433,-6,10,7,
41,7,28,2023,11,5,16,15,2212,-553,3434,-3,10,5,
42,7,28,2023,11,5,16,25,2208,-564,3428,-5,7,4,
43,7,28,2023,11,5,16,35,2208,-565,3437,-2,10,4,
44,7,28,2023,11,5,16,45,2210,-565,3436,0,12,2,
45,7,28,2023,11,5,16,55,2215,-558,3442,-1,11,0,
46,7,28,2023,11,5,16,65,2206,-560,3439,-1,11,5,
47,7,28,2023,11,5,16,75,2210,-562,3431,1,12,4,
48,7,28,2023,11,5,16,85,2207,-561,3444,0,11,5,
49,7,28,2023,11,5,16,95,2211,-571,3441,-3,11,2,
50,7,28,2023,11,5,16,105,2209,-557,3440,0,11,6,
51,7,28,2023,11,5,16,115,2210,-555,3428,-2,10,5,
52,7,28,2023,11,5,16,125,2201,-564,3433,-2,11,4,
53,7,28,2023,11,5,16,135,2207,-568,3430,0,17,3,
54,7,28,2023,11,5,16,145,2225,-552,3439,4,17,1,
55,7,28,2023,11,5,16,155,2204,-556,3438,0,17,5,
56,7,28,2023,11,5,16,165,2202,-574,3443,3,14,5,
57,7,28,2023,11,5,16,175,2220,-547,3436,4,16,4,
58,7,28,2023,11,5,16,185,2206,-567,3444,2,19,6,
59,7,28,2023,11,5,16,195,2218,-563,3439,6,18,2,
60,7,28,2023,11,5,16,205,2218,-556,3442,5,22,4,
61,7,28,2023,11,5,16,215,2198,-571,3433,0,22,4,
62,7,28,2023,11,5,16,225,2215,-552,3426,5,27,3,
63,7,28,2023,11,5,16,235,2205,-550,3436,9,34,10,
64,7,28,2023,11,5,16,245,2207,-573,3451,7,34,7,
65,7,28,2023,11,5,16,255,2204,-558,3457,9,31,5,
66,7,28,2023,11,5,16,265,2211,-567,3432,8,31,4,
67,7,28,2023,11,5,16,275,2208,-560,3427,13,33,4,
68,7,28,2023,11,5,16,285,2206,-568,3421,16,40,4,
69,7,28,2023,11,5,16,295,2179,-546,3428,17,48,0,
70,7,28,2023,11,5,16,305,2195,-560,3415,14,45,-4,
71,7,28,2023,11,5,16,315,2190,-550,3442,15,46,2,
72,7,28,2023,11,5,16,325,2194,-588,3439,13,38,3,
73,7,28,2023,11,5,16,335,2207,-543,3456,16,35,-4,
74,7,28,2023,11,5,16,345,2207,-558,3460,16,33,-1,
75,7,28,2023,11,5,16,355,2208,-551,3450,13,32,-3,
76,7,28,2023,11,5,16,365,2204,-550,3454,10,33,3,
77,7,28,2023,11,5,16,375,2199,-544,3452,3,33,4,
78,7,28,2023,11,5,16,385,2197,-547,3446,5,34,7,
79,7,28,2023,11,5,16,395,2184,-561,3439,6,32,6,
80,7,28,2023,11,5,16,405,2186,-580,3444,4,38,3,
81,7,28,2023,11,5,16,415,2181,-572,3445,6,27,3,
82,7,28,2023,11,5,16,425,2182,-572,3442,5,19,0,
83,7,28,2023,11,5,16,435,2191,-569,3444,8,17,0,
84,7,28,2023,11,5,16,445,2192,-551,3457,10,19,-5,
85,7,28,2023,11,5,16,455,2185,-561,3452,16,27,-9,
86,7,28,2023,11,5,16,475,2191,-556,3446,0,11,0,
87,7,28,2023,11,5,16,485,2192,-557,3454,-4,9,2,
88,7,28,2023,11,5,16,495,2191,-555,3448,-3,5,0,
89,7,28,2023,11,5,16,505,2202,-557,3454,0,5,-1,
90,7,28,2023,11,5,16,515,2188,-559,3452,1,4,1,
91,7,28,2023,11,5,16,525,2187,-559,3449,2,4,-4,
92,7,28,2023,11,5,16,535,2194,-560,3450,5,2,-4,
93,7,28,2023,11,5,16,545,2190,-558,3455,0,-2,-4,
94,7,28,2023,11,5,16,555,2187,-560,3457,4,-3,-7,
95,7,28,2023,11,5,16,565,2199,-563,3454,5,-5,-9,
96,7,28,2023,11,5,16,575,2200,-547,3457,5,-10,-7,
97,7,28,2023,11,5,16,585,2197,-559,3455,4,-13,-9,
98,7,28,2023,11,5,16,595,2200,-555,3444,4,-13,-10,
99,7,28,2023,11,5,16,605,2199,-540,3445,2,-20,-6,
100,7,28,2023,11,5,16,615,2201,-563,3433,-2,-20,-3,
101,7,28,2023,11,5,16,625,2183,-558,3436,1,-15,-7,
102,7,28,2023,11,5,16,635,2198,-548,3441,0,-13,-13,
103,7,28,2023,11,5,16,645,2206,-539,3442,-5,-12,-5,
104,7,28,2023,11,5,16,655,2196,-549,3440,-2,-8,-3,
105,7,28,2023,11,5,16,665,2195,-551,3443,-2,-5,-6,
106,7,28,2023,11,5,16,675,2190,-546,3443,-1,-2,-2,
107,7,28,2023,11,5,16,685,2194,-544,3450,-1,1,2,
108,7,28,2023,11,5,16,695,2200,-550,3440,-2,-4,2,
109,7,28,2023,11,5,16,705,2205,-550,3441,-4,-6,0,
110,7,28,2023,11,5,16,715,2198,-557,3441,-3,3,2,
111,7,28,2023,11,5,16,725,2193,-547,3439,1,5,5,
112,7,28,2023,11,5,16,735,2211,-546,3440,-4,-1,4,
113,7,28,2023,11,5,16,745,2195,-548,3444,0,3,6,
114,7,28,2023,11,5,16,755,2195,-547,3446,-1,7,5,
115,7,28,2023,11,5,16,765,2199,-561,3436,-2,6,5,
116,7,28,2023,11,5,16,775,2196,-558,3450,-2,8,7,
117,7,28,2023,11,5,16,785,2196,-557,3445,-2,4,6,
118,7,28,2023,11,5,16,795,2205,-549,3454,-2,2,4,
119,7,28,2023,11,5,16,805,2192,-552,3446,-6,4,5,
120,7,28,2023,11,5,16,815,2189,-559,3443,-8,8,8,
121,7,28,2023,11,5,16,825,2197,-557,3448,-7,5,5,
122,7,28,2023,11,5,16,835,2205,-558,3451,-3,2,5,
123,7,28,2023,11,5,16,845,2201,-566,3450,-3,1,2,
124,7,28,2023,11,5,16,855,2200,-561,3443,-5,3,0,
125,7,28,2023,11,5,16,865,2192,-559,3432,-3,4,0,
126,7,28,2023,11,5,16,875,2191,-556,3438,0,3,2,
127,7,28,2023,11,5,16,885,2197,-553,3444,-1,3,1,
128,7,28,2023,11,5,16,895,2197,-558,3442,1,7,2,
129,7,28,2023,11,5,16,905,2191,-556,3438,3,8,1,
130,7,28,2023,11,5,16,915,2197,-554,3440,-1,8,-1,
131,7,28,2023,11,5,16,925,2193,-554,3446,2,5,-1,
132,7,28,2023,11,5,16,935,2195,-553,3447,2,6,0,
133,7,28,2023,11,5,16,945,2196,-549,3439,-1,6,3,
134,7,28,2023,11,5,16,955,2200,-557,3443,2,5,2,
135,7,28,2023,11,5,16,965,2199,-560,3443,-1,9,0,
136,7,28,2023,11,5,16,975,2194,-548,3445,0,7,0,
137,7,28,2023,11,5,16,985,2194,-549,3445,4,11,1,
138,7,28,2023,11,5,16,995,2193,-550,3447,2,5,2,
139,7,28,2023,11,5,17,5,2202,-551,3449,-1,5,-2,
140,7,28,2023,11,5,17,15,2199,-543,3441,-2,7,1,
141,7,28,2023,11,5,17,25,2196,-551,3447,-1,5,2,
142,7,28,2023,11,5,17,35,2203,-551,3447,-1,3,2,
143,7,28,2023,11,5,17,45,2199,-551,3450,-3,7,6,
144,7,28,2023,11,5,17,55,2187,-555,3444,-2,8,2,
145,7,28,2023,11,5,17,65,2197,-552,3437,0,9,-2,
146,7,28,2023,11,5,17,75,2193,-550,3445,-2,8,0,
147,7,28,2023,11,5,17,85,2187,-556,3440,0,10,-1,
148,7,28,2023,11,5,17,95,2186,-563,3444,10,20,-3,
149,7,28,2023,11,5,17,105,2194,-551,3443,4,10,2,
150,7,28,2023,11,5,17,115,2182,-558,3439,-2,4,5,
151,7,28,2023,11,5,17,125,2192,-553,3448,-5,7,-2,
152,7,28,2023,11,5,17,135,2196,-556,3445,0,4,0,
153,7,28,2023,11,5,17,145,2198,-552,3448,-2,1,1,
154,7,28,2023,11,5,17,155,2195,-559,3450,-4,4,-1,
155,7,28,2023,11,5,17,165,2191,-554,3447,-1,3,-2,
156,7,28,2023,11,5,17,175,2197,-547,3447,2,4,-1,
157,7,28,2023,11,5,17,185,2195,-554,3442,2,0,1,
158,7,28,2023,11,5,17,195,2187,-566,3447,-1,-5,-2,
159,7,28,2023,11,5,17,205,2198,-552,3448,-2,-4,-2,
160,7,28,2023,11,5,17,215,2192,-560,3440,-2,-3,-3,
161,7,28,2023,11,5,17,225,2194,-549,3448,3,-2,-5,
162,7,28,2023,11,5,17,235,2199,-541,3450,2,-5,-1,
163,7,28,2023,11,5,17,245,2189,-551,3447,-1,-5,-3,
164,7,28,2023,11,5,17,255,2189,-554,3438,1,-5,-1,
165,7,28,2023,11,5,17,265,2196,-552,3436,1,-7,-1,
166,7,28,2023,11,5,17,275,2200,-533,3443,0,-3,-2,
167,7,28,2023,11,5,17,285,2209,-548,3438,-4,2,4,
168,7,28,2023,11,5,17,295,2200,-545,3438,-3,3,5,
169,7,28,2023,11,5,17,305,2189,-557,3443,-4,4,4,
170,7,28,2023,11,5,17,315,2194,-543,3434,-3,7,2,
171,7,28,2023,11,5,17,335,2193,-545,3448,1,15,0,
172,7,28,2023,11,5,17,345,2197,-542,3455,-4,15,0,
173,7,28,2023,11,5,17,355,2191,-550,3448,-5,11,3,
174,7,28,2023,11,5,17,365,2192,-551,3450,-3,11,5,
175,7,28,2023,11,5,17,375,2194,-555,3443,-4,10,7,
176,7,28,2023,11,5,17,385,2200,-559,3439,-2,10,6,
177,7,28,2023,11,5,17,395,2203,-547,3441,0,8,2,
178,7,28,2023,11,5,17,405,2208,-545,3439,-4,8,3,
179,7,28,2023,11,5,17,415,2191,-546,3443,-4,10,6,
180,7,28,2023,11,5,17,425,2189,-546,3445,-5,11,6,
181,7,28,2023,11,5,17,435,2191,-548,3449,-6,6,5,
182,7,28,2023,11,5,17,445,2190,-556,3451,-5,4,8,
183,7,28,2023,11,5,17,455,2193,-555,3454,-5,7,6,
184,7,28,2023,11,5,17,465,2193,-556,3449,-5,5,4,
185,7,28,2023,11,5,17,475,2191,-561,3453,-6,3,6,
186,7,28,2023,11,5,17,485,2193,-557,3451,-4,5,7,
187,7,28,2023,11,5,17,495,2199,-550,3450,0,-1,4,
188,7,28,2023,11,5,17,505,2200,-552,3451,-4,3,1,
189,7,28,2023,11,5,17,515,2198,-555,3448,-5,4,1,
190,7,28,2023,11,5,17,525,2196,-552,3448,-2,4,4,
191,7,28,2023,11,5,17,535,2194,-554,3440,-5,9,3,
192,7,28,2023,11,5,17,545,2192,-552,3450,-1,9,1,
193,7,28,2023,11,5,17,555,2189,-548,3445,-1,8,-2,
194,7,28,2023,11,5,17,565,2192,-545,3444,0,7,0,
195,7,28,2023,11,5,17,575,2189,-555,3439,2,7,0,
196,7,28,2023,11,5,17,585,2198,-555,3447,0,10,0,
197,7,28,2023,11,5,17,595,2203,-552,3445,3,7,1,
198,7,28,2023,11,5,17,605,2201,-546,3444,0,6,0,
199,7,28,2023,11,5,17,615,2198,-547,3446,-3,11,0,
200,7,28,2023,11,5,17,625,2195,-545,3451,0,9,0,
201,7,28,2023,11,5,17,635,2199,-553,3443,-1,8,2,
202,7,28,2023,11,5,17,645,2191,-559,3445,-2,8,2,
203,7,28,2023,11,5,17,655,2199,-554,3451,-2,8,3,
204,7,28,2023,11,5,17,665,2197,-550,3450,1,7,-1,
205,7,28,2023,11,5,17,675,2197,-557,3448,-1,6,2,
206,7,28,2023,11,5,17,685,2201,-550,3460,-1,6,0,
207,7,28,2023,11,5,17,695,2197,-548,3458,1,2,-1,
208,7,28,2023,11,5,17,705,2194,-551,3444,0,5,2,
209,7,28,2023,11,5,17,715,2190,-538,3443,-4,4,3,
210,7,28,2023,11,5,17,725,2191,-539,3441,-6,7,7,
211,7,28,2023,11,5,17,735,2200,-554,3440,-5,7,7,
212,7,28,2023,11,5,17,745,2192,-558,3443,-4,8,6,
213,7,28,2023,11,5,17,755,2185,-554,3442,-2,7,3,
214,7,28,2023,11,5,17,765,2188,-552,3441,-3,10,0,
215,7,28,2023,11,5,17,775,2202,-556,3448,1,10,5,
216,7,28,2023,11,5,17,785,2196,-548,3445,1,8,3,
217,7,28,2023,11,5,17,795,2192,-544,3444,-1,12,3,
218,7,28,2023,11,5,17,805,2192,-552,3450,-2,11,5,
219,7,28,2023,11,5,17,815,2190,-547,3444,-1,10,5,
220,7,28,2023,11,5,17,825,2189,-549,3450,-1,8,5,
221,7,28,2023,11,5,17,835,2189,-552,3457,-5,9,4,
222,7,28,2023,11,5,17,845,2190,-553,3453,-5,9,2,
223,7,28,2023,11,5,17,855,2195,-558,3453,-6,6,5,
224,7,28,2023,11,5,17,865,2196,-555,3455,-7,3,4,
225,7,28,2023,11,5,17,875,2196,-558,3452,-5,2,7,
226,7,28,2023,11,5,17,885,2202,-554,3458,-7,-1,6,
227,7,28,2023,11,5,17,895,2196,-560,3449,-7,2,3,
228,7,28,2023,11,5,17,905,2196,-553,3449,-4,3,7,
229,7,28,2023,11,5,17,915,2190,-552,3443,-5,3,6,
230,7,28,2023,11,5,17,925,2184,-555,3444,-4,1,4,
231,7,28,2023,11,5,17,935,2185,-554,3443,-5,0,5,
232,7,28,2023,11,5,17,945,2184,-556,3437,-3,5,3,
233,7,28,2023,11,5,17,955,2190,-557,3441,-2,5,-1,
234,7,28,2023,11,5,17,965,2188,-555,3447,1,2,-2,
235,7,28,2023,11,5,17,975,2188,-551,3454,-1,6,1,
236,7,28,2023,11,5,17,985,2195,-555,3450,4,7,-4,
237,7,28,2023,11,5,17,995,2192,-553,3450,1,5,-5,
238,7,28,2023,11,5,18,5,2193,-550,3446,-2,4,-1,
239,7,28,2023,11,5,18,15,2191,-545,3446,-2,4,-1,
240,7,28,2023,11,5,18,25,2192,-560,3443,2,7,-1,
241,7,28,2023,11,5,18,35,2187,-548,3445,2,-1,0,
242,7,28,2023,11,5,18,45,2188,-546,3452,-2,0,2,
243,7,28,2023,11,5,18,55,2184,-549,3451,-4,-1,4,
244,7,28,2023,11,5,18,65,2198,-549,3454,-2,-5,2,
245,7,28,2023,11,5,18,75,2198,-545,3455,-3,-2,4,
246,7,28,2023,11,5,18,85,2192,-562,3450,-7,-3,7,
247,7,28,2023,11,5,18,95,2200,-550,3448,-4,-5,5,
248,7,28,2023,11,5,18,105,2203,-550,3446,-8,-4,5,
249,7,28,2023,11,5,18,115,2200,-553,3444,-5,-2,1,
250,7,28,2023,11,5,18,125,2192,-547,3449,-4,0,4,
251,7,28,2023,11,5,18,135,2187,-546,3443,-7,0,6,
252,7,28,2023,11,5,18,145,2189,-557,3438,-8,1,3,
253,7,28,2023,11,5,18,155,2193,-554,3445,-5,-2,7,
254,7,28,2023,11,5,18,165,2197,-552,3446,-7,1,8,
255,7,28,2023,11,5,18,175,2194,-555,3448,-7,1,4,
256,7,28,2023,11,5,18,195,2192,-539,3445,-7,2,5,
257,7,28,2023,11,5,18,205,2194,-546,3442,-7,5,8,
258,7,28,2023,11,5,18,215,2192,-556,3441,-7,3,7,
259,7,28,2023,11,5,18,225,2189,-559,3437,-11,5,6,
260,7,28,2023,11,5,18,235,2199,-554,3446,-7,6,7,
261,7,28,2023,11,5,18,245,2196,-551,3447,-8,9,8,
262,7,28,2023,11,5,18,255,2194,-564,3440,-7,7,5,
263,7,28,2023,11,5,18,265,2195,-557,3450,-2,2,4,
264,7,28,2023,11,5,18,275,2188,-557,3458,-2,3,8,
265,7,28,2023,11,5,18,285,2197,-549,3451,-5,4,4,
266,7,28,2023,11,5,18,295,2199,-553,3451,-4,2,5,
267,7,28,2023,11,5,18,305,2196,-554,3447,-5,4,1,
268,7,28,2023,11,5,18,315,2191,-556,3438,-3,5,1,
269,7,28,2023,11,5,18,325,2184,-557,3448,-1,3,7,
270,7,28,2023,11,5,18,335,2192,-552,3444,-6,4,3,
271,7,28,2023,11,5,18,345,2196,-545,3435,-6,1,3,
272,7,28,2023,11,5,18,355,2195,-546,3448,-5,0,6,
273,7,28,2023,11,5,18,365,2180,-559,3447,-5,-2,6,
274,7,28,2023,11,5,18,375,2193,-546,3449,-4,-5,4,
275,7,28,2023,11,5,18,385,2202,-553,3451,-6,-3,4,
276,7,28,2023,11,5,18,395,2193,-552,3458,-10,-2,3,
277,7,28,2023,11,5,18,405,2190,-565,3450,-7,-7,-1,
278,7,28,2023,11,5,18,415,2189,-551,3446,-5,-6,2,
279,7,28,2023,11,5,18,425,2178,-561,3440,-10,-4,4,
280,7,28,2023,11,5,18,435,2186,-565,3438,-8,-11,0,
281,7,28,2023,11,5,18,445,2209,-554,3446,-2,-12,-8,
282,7,28,2023,11,5,18,455,2190,-549,3455,-5,-5,-1,
283,7,28,2023,11,5,18,465,2208,-565,3445,-6,-7,1,
284,7,28,2023,11,5,18,475,2202,-548,3457,-8,-10,-3,
285,7,28,2023,11,5,18,485,2198,-553,3443,-11,-14,1,
286,7,28,2023,11,5,18,495,2192,-572,3443,-11,-15,7,
287,7,28,2023,11,5,18,505,2190,-553,3441,-8,-18,4,
288,7,28,2023,11,5,18,515,2205,-541,3445,-9,-23,3,
289,7,28,2023,11,5,18,525,2205,-562,3445,-14,-21,6,
290,7,28,2023,11,5,18,535,2210,-551,3439,-14,-17,2,
291,7,28,2023,11,5,18,545,2204,-543,3436,-14,-14,5,
292,7,28,2023,11,5,18,555,2205,-555,3434,-13,-13,9,
293,7,28,2023,11,5,18,565,2208,-542,3443,-12,-9,11,
294,7,28,2023,11,5,18,575,2213,-547,3430,-17,-5,15,
295,7,28,2023,11,5,18,585,2206,-559,3435,-17,0,15,
296,7,28,2023,11,5,18,595,2215,-569,3435,-13,5,13,
297,7,28,2023,11,5,18,605,2216,-553,3440,-8,11,12,
298,7,28,2023,11,5,18,615,2209,-551,3442,-11,17,16,
299,7,28,2023,11,5,18,625,2203,-560,3436,-15,21,21,
300,7,28,2023,11,5,18,635,2202,-554,3431,-12,23,20,
301,7,28,2023,11,5,18,645,2207,-563,3433,-13,22,21,
302,7,28,2023,11,5,18,655,2201,-562,3436,-9,26,23,
303,7,28,2023,11,5,18,665,2193,-569,3437,-6,29,18,
304,7,28,2023,11,5,18,675,2203,-570,3445,-3,36,17,
305,7,28,2023,11,5,18,685,2194,-558,3445,-3,39,14,
306,7,28,2023,11,5,18,695,2193,-574,3453,-4,37,16,
307,7,28,2023,11,5,18,705,2195,-570,3449,1,40,13,
308,7,28,2023,11,5,18,715,2188,-564,3444,2,34,12,
309,7,28,2023,11,5,18,725,2190,-563,3450,4,32,9,
310,7,28,2023,11,5,18,735,2194,-545,3448,3,31,12,
311,7,28,2023,11,5,18,745,2195,-560,3440,0,31,15,
312,7,28,2023,11,5,18,755,2190,-561,3451,3,31,12,
313,7,28,2023,11,5,18,765,2193,-550,3445,-4,30,14,
314,7,28,2023,11,5,18,775,2189,-560,3443,-4,27,17,
315,7,28,2023,11,5,18,785,2186,-546,3440,-1,34,17,
316,7,28,2023,11,5,18,795,2195,-574,3437,-3,32,19,
317,7,28,2023,11,5,18,805,2186,-561,3434,-3,32,16,
318,7,28,2023,11,5,18,815,2172,-576,3445,-3,31,16,
319,7,28,2023,11,5,18,825,2186,-553,3443,-3,26,17,
320,7,28,2023,11,5,18,835,2186,-573,3443,-4,29,16,
321,7,28,2023,11,5,18,845,2188,-570,3449,4,23,15,
322,7,28,2023,11,5,18,855,2197,-569,3449,-1,26,11,
323,7,28,2023,11,5,18,865,2186,-568,3454,-2,32,14,
324,7,28,2023,11,5,18,875,2196,-553,3462,3,28,9,
325,7,28,2023,11,5,18,885,2192,-541,3458,-4,31,9,
326,7,28,2023,11,5,18,895,2185,-560,3466,-6,37,12,
327,7,28,2023,11,5,18,905,2194,-559,3461,-4,32,10,
328,7,28,2023,11,5,18,915,2188,-552,3465,-8,30,14,
329,7,28,2023,11,5,18,925,2178,-562,3462,-10,25,17,
330,7,28,2023,11,5,18,935,2197,-553,3449,-7,22,14,
331,7,28,2023,11,5,18,945,2187,-536,3460,-18,24,17,
332,7,28,2023,11,5,18,955,2179,-578,3444,-22,27,17,
333,7,28,2023,11,5,18,965,2185,-540,3454,-18,25,18,
334,7,28,2023,11,5,18,975,2191,-574,3449,-27,23,26,
335,7,28,2023,11,5,18,985,2181,-582,3454,-22,23,26,
336,7,28,2023,11,5,18,995,2187,-553,3453,-19,20,23,
337,7,28,2023,11,5,19,5,2199,-550,3457,-11,16,20,
338,7,28,2023,11,5,19,15,2159,-580,3464,-19,17,28,
339,7,28,2023,11,5,19,25,2185,-572,3446,-35,15,35,
340,7,28,2023,11,5,19,35,2187,-568,3455,-33,13,33,
341,7,28,2023,11,5,19,55,2172,-577,3457,-40,14,38,
342,7,28,2023,11,5,19,65,2185,-580,3454,-38,14,36,
343,7,28,2023,11,5,19,75,2192,-574,3450,-35,10,38,
344,7,28,2023,11,5,19,85,2192,-579,3449,-35,10,40,
345,7,28,2023,11,5,19,95,2178,-570,3475,-27,5,37,
346,7,28,2023,11,5,19,105,2168,-585,3465,-41,9,41,
347,7,28,2023,11,5,19,115,2181,-577,3454,-42,12,42,
348,7,28,2023,11,5,19,125,2171,-573,3455,-42,6,47,
349,7,28,2023,11,5,19,135,2181,-580,3442,-43,8,47,
350,7,28,2023,11,5,19,145,2188,-585,3433,-40,6,46,
351,7,28,2023,11,5,19,155,2147,-607,3456,-38,0,44,
352,7,28,2023,11,5,19,165,2167,-603,3442,-43,10,45,
353,7,28,2023,11,5,19,175,2176,-599,3448,-34,11,40,
354,7,28,2023,11,5,19,185,2177,-594,3455,-28,10,35,
355,7,28,2023,11,5,19,195,2198,-587,3444,-23,9,27,
356,7,28,2023,11,5,19,205,2156,-594,3462,-19,9,27,
357,7,28,2023,11,5,19,215,2161,-600,3457,-26,15,29,
358,7,28,2023,11,5,19,225,2178,-583,3446,-24,19,25,
359,7,28,2023,11,5,19,235,2165,-582,3451,-22,20,27,
360,7,28,2023,11,5,19,245,2174,-591,3447,-20,20,23,
361,7,28,2023,11,5,19,255,2167,-602,3442,-19,17,25,
362,7,28,2023,11,5,19,265,2186,-584,3441,-12,19,23,
363,7,28,2023,11,5,19,275,2180,-595,3466,-1,12,23,
364,7,28,2023,11,5,19,285,2160,-606,3467,-14,17,24,
365,7,28,2023,11,5,19,295,2185,-588,3467,-13,18,22,
366,7,28,2023,11,5,19,305,2181,-595,3456,-13,19,21,
367,7,28,2023,11,5,19,315,2165,-597,3461,-17,19,25,
368,7,28,2023,11,5,19,325,2175,-594,3462,-17,11,22,
369,7,28,2023,11,5,19,335,2156,-605,3461,-15,9,24,
370,7,28,2023,11,5,19,345,2177,-599,3450,-16,7,21,
371,7,28,2023,11,5,19,355,2174,-590,3447,-12,7,18,
372,7,28,2023,11,5,19,365,2176,-602,3445,-4,3,17,
373,7,28,2023,11,5,19,375,2139,-607,3452,-7,10,16,
374,7,28,2023,11,5,19,385,2167,-594,3452,-9,12,17,
375,7,28,2023,11,5,19,395,2137,-601,3453,-6,8,9,
376,7,28,2023,11,5,19,405,2168,-603,3455,-4,5,7,
377,7,28,2023,11,5,19,415,2163,-601,3456,-6,8,6,
378,7,28,2023,11,5,19,425,2158,-607,3461,-5,4,4,
379,7,28,2023,11,5,19,435,2181,-587,3456,-3,0,3,
380,7,28,2023,11,5,19,445,2183,-586,3465,-6,0,5,
381,7,28,2023,11,5,19,455,2170,-602,3468,-7,0,5,
382,7,28,2023,11,5,19,465,2194,-602,3461,-10,-3,9,
383,7,28,2023,11,5,19,475,2168,-599,3468,-13,-2,9,
384,7,28,2023,11,5,19,485,2174,-599,3448,-14,-4,8,
385,7,28,2023,11,5,19,495,2166,-603,3445,-10,0,10,
386,7,28,2023,11,5,19,505,2166,-597,3444,-6,2,6,
387,7,28,2023,11,5,19,515,2163,-586,3443,-9,2,5,
388,7,28,2023,11,5,19,525,2167,-601,3448,-7,3,7,
389,7,28,2023,11,5,19,535,2163,-603,3447,-9,6,5,
390,7,28,2023,11,5,19,545,2165,-596,3451,-6,4,2,
391,7,28,2023,11,5,19,555,2165,-591,3446,-4,6,4,
392,7,28,2023,11,5,19,565,2167,-597,3451,-5,7,5,
393,7,28,2023,11,5,19,575,2167,-603,3451,-6,8,5,
394,7,28,2023,11,5,19,585,2163,-601,3451,-7,13,3,
395,7,28,2023,11,5,19,595,2163,-606,3454,-2,9,3,
396,7,28,2023,11,5,19,605,2170,-601,3457,0,5,-1,
397,7,28,2023,11,5,19,615,2166,-600,3455,-2,8,1,
398,7,28,2023,11,5,19,625,2169,-600,3458,-1,4,1,
399,7,28,2023,11,5,19,635,2171,-601,3453,0,6,-3,
400,7,28,2023,11,5,19,645,2166,-599,3450,-2,7,-2,
401,7,28,2023,11,5,19,655,2164,-602,3446,2,6,-1,
402,7,28,2023,11,5,19,665,2154,-609,3451,4,4,-4,
403,7,28,2023,11,5,19,675,2174,-601,3454,5,3,-4,
404,7,28,2023,11,5,19,685,2146,-616,3453,3,3,-7,
405,7,28,2023,11,5,19,695,2164,-602,3456,8,-4,-10,
406,7,28,2023,11,5,19,705,2185,-576,3457,7,-5,-13,
407,7,28,2023,11,5,19,715,2180,-588,3458,3,-1,-8,
408,7,28,2023,11,5,19,725,2167,-594,3460,2,0,-5,
409,7,28,2023,11,5,19,735,2169,-601,3458,3,-1,-7,
410,7,28,2023,11,5,19,745,2142,-614,3460,1,-4,-9,
411,7,28,2023,11,5,19,755,2160,-603,3451,2,-10,-14,
412,7,28,2023,11,5,19,765,2187,-577,3457,4,-17,-13,
413,7,28,2023,11,5,19,775,2185,-594,3453,1,-18,-9,
414,7,28,2023,11,5,19,785,2178,-598,3454,2,-13,-9,
415,7,28,2023,11,5,19,795,2186,-587,3445,1,-8,-8,
416,7,28,2023,11,5,19,805,2180,-588,3446,-1,-4,-6,
417,7,28,2023,11,5,19,815,2173,-586,3451,-1,-6,-4,
418,7,28,2023,11,5,19,825,2173,-604,3445,2,-7,-4,
419,7,28,2023,11,5,19,835,2185,-603,3442,2,-2,-3,
420,7,28,2023,11,5,19,845,2185,-588,3454,6,2,-6,
421,7,28,2023,11,5,19,855,2188,-586,3456,5,5,-6,
422,7,28,2023,11,5,19,865,2200,-571,3448,3,9,-6,
423,7,28,2023,11,5,19,875,2148,-597,3448,1,12,2,
424,7,28,2023,11,5,19,885,2175,-593,3447,2,9,1,
425,7,28,2023,11,5,19,895,2173,-587,3442,0,9,-1,
426,7,28,2023,11,5,19,915,2178,-601,3454,5,8,-3,
427,7,28,2023,11,5,19,925,2170,-590,3449,6,6,-2,
428,7,28,2023,11,5,19,935,2162,-594,3452,3,6,-2,
429,7,28,2023,11,5,19,945,2169,-597,3453,2,4,-7,
430,7,28,2023,11,5,19,955,2160,-596,3459,2,5,-7,
431,7,28,2023,11,5,19,965,2172,-593,3453,4,-2,-7,
432,7,28,2023,11,5,19,975,2181,-579,3458,0,-2,-3,
433,7,28,2023,11,5,19,985,2187,-582,3462,-1,-5,2,
434,7,28,2023,11,5,19,995,2186,-591,3455,-5,-5,6,
435,7,28,2023,11,5,20,5,2180,-589,3456,-10,-2,2,
436,7,28,2023,11,5,20,15,2180,-591,3459,-8,-5,5,
437,7,28,2023,11,5,20,25,2181,-582,3459,-7,-6,5,
438,7,28,2023,11,5,20,35,2176,-594,3459,-12,-6,4,
439,7,28,2023,11,5,20,45,2176,-596,3457,-14,-8,8,
440,7,28,2023,11,5,20,55,2176,-599,3442,-13,-9,10,
441,7,28,2023,11,5,20,65,2171,-596,3452,-14,-7,9,
442,7,28,2023,11,5,20,75,2175,-593,3451,-13,-6,6,
443,7,28,2023,11,5,20,85,2179,-592,3453,-10,-5,5,
444,7,28,2023,11,5,20,95,2152,-602,3431,-10,-1,9,
445,7,28,2023,11,5,20,105,2175,-600,3435,-5,-2,5,
446,7,28,2023,11,5,20,115,2175,-604,3434,-4,5,2,
447,7,28,2023,11,5,20,125,2181,-607,3451,-2,8,7,
448,7,28,2023,11,5,20,135,2172,-599,3459,1,8,1,
449,7,28,2023,11,5,20,145,2187,-601,3455,2,9,-2,
450,7,28,2023,11,5,20,155,2164,-596,3456,4,6,-4,
451,7,28,2023,11,5,20,165,2191,-599,3454,6,-1,-4,
452,7,28,2023,11,5,20,175,2166,-600,3457,3,-2,-5,
453,7,28,2023,11,5,20,185,2185,-585,3451,3,-3,-4,
454,7,28,2023,11,5,20,195,2168,-601,3454,-2,-3,-5,
455,7,28,2023,11,5,20,205,2180,-584,3447,5,-5,-2,
456,7,28,2023,11,5,20,215,2165,-596,3449,3,-5,-1,
457,7,28,2023,11,5,20,225,2175,-593,3450,1,-6,-2,
458,7,28,2023,11,5,20,235,2170,-604,3452,2,-8,-1,
459,7,28,2023,11,5,20,245,2183,-591,3452,-2,-7,-4,
460,7,28,2023,11,5,20,255,2174,-584,3446,-4,-3,3,
461,7,28,2023,11,5,20,265,2178,-595,3440,-4,-1,3,
462,7,28,2023,11,5,20,275,2178,-588,3440,-1,-3,5,
463,7,28,2023,11,5,20,285,2171,-600,3447,-5,4,2,
464,7,28,2023,11,5,20,295,2175,-590,3452,0,1,-3,
465,7,28,2023,11,5,20,305,2181,-599,3454,-2,-1,1,
466,7,28,2023,11,5,20,315,2172,-596,3453,-2,1,-3,
467,7,28,2023,11,5,20,325,2177,-589,3451,-1,-3,-4,
468,7,28,2023,11,5,20,335,2180,-585,3454,-3,-2,-1,
469,7,28,2023,11,5,20,345,2178,-591,3460,-2,-1,2,
470,7,28,2023,11,5,20,355,2184,-587,3457,-4,2,1,
471,7,28,2023,11,5,20,365,2184,-586,3445,-8,3,1,
472,7,28,2023,11,5,20,375,2185,-594,3445,-6,2,4,
473,7,28,2023,11,5,20,385,2178,-599,3454,-5,1,5,
474,7,28,2023,11,5,20,395,2182,-595,3442,-3,0,2,
475,7,28,2023,11,5,20,405,2183,-585,3450,-6,6,0,
476,7,28,2023,11,5,20,415,2187,-588,3455,-4,5,3,
477,7,28,2023,11,5,20,425,2176,-599,3451,-8,6,8,
478,7,28,2023,11,5,20,435,2178,-594,3453,-5,7,7,
479,7,28,2023,11,5,20,445,2186,-594,3448,-6,1,3,
480,7,28,2023,11,5,20,455,2178,-592,3449,-6,2,2,
481,7,28,2023,11,5,20,465,2168,-597,3444,-4,7,3,
482,7,28,2023,11,5,20,475,2177,-591,3439,0,3,1,
483,7,28,2023,11,5,20,485,2176,-593,3433,0,3,1,
484,7,28,2023,11,5,20,495,2168,-600,3429,-1,7,2,
485,7,28,2023,11,5,20,505,2184,-592,3443,7,12,-2,
486,7,28,2023,11,5,20,515,2171,-594,3444,7,13,-6,
487,7,28,2023,11,5,20,525,2172,-595,3456,8,13,-9,
488,7,28,2023,11,5,20,535,2187,-598,3460,11,10,-10,
489,7,28,2023,11,5,20,545,2168,-610,3462,15,11,-13,
490,7,28,2023,11,5,20,555,2175,-573,3466,14,5,-13,
491,7,28,2023,11,5,20,565,2191,-587,3460,10,1,-8,
492,7,28,2023,11,5,20,575,2182,-580,3458,5,2,-7,
493,7,28,2023,11,5,20,585,2181,-593,3458,5,-1,-4,
494,7,28,2023,11,5,20,595,2175,-586,3455,6,-2,-4,
495,7,28,2023,11,5,20,605,2172,-591,3447,1,-2,-4,
496,7,28,2023,11,5,20,615,2169,-599,3456,-1,0,-6,
497,7,28,2023,11,5,20,625,2181,-590,3454,4,0,-8,
498,7,28,2023,11,5,20,635,2171,-598,3455,2,2,-3,
499,7,28,2023,11,5,20,645,2171,-593,3443,2,7,-10,
500,7,28,2023,11,5,20,655,2176,-582,3449,9,5,-9,
501,7,28,2023,11,5,20,665,2176,-582,3443,10,3,-9,
502,7,28,2023,11,5,20,675,2177,-587,3446,9,12,-8,
503,7,28,2023,11,5,20,685,2175,-588,3446,9,7,-9,
504,7,28,2023,11,5,20,695,2177,-590,3445,7,6,-4,
505,7,28,2023,11,5,20,705,2175,-594,3455,9,11,-6,
506,7,28,2023,11,5,20,715,2176,-592,3454,11,11,-8,
507,7,28,2023,11,5,20,725,2179,-584,3454,10,10,-10,
508,7,28,2023,11,5,20,735,2174,-592,3453,8,9,-10,
509,7,28,2023,11,5,20,745,2179,-587,3454,7,10,-10,
510,7,28,2023,11,5,20,755,2180,-589,3457,10,9,-8,
511,7,28,2023,11,5,20,775,2173,-579,3455,7,9,-8,
512,7,28,2023,11,5,20,785,2165,-594,3453,5,5,-4,
513,7,28,2023,11,5,20,795,2172,-577,3453,11,6,-7,
514,7,28,2023,11,5,20,805,2167,-589,3449,8,4,-9,
515,7,28,2023,11,5,20,815,2182,-574,3450,4,6,-11,
516,7,28,2023,11,5,20,825,2171,-581,3449,8,4,-13,
517,7,28,2023,11,5,20,835,2181,-587,3455,8,0,-10,
518,7,28,2023,11,5,20,845,2180,-571,3461,9,2,-10,
519,7,28,2023,11,5,20,855,2185,-579,3448,6,3,-6,
520,7,28,2023,11,5,20,865,2174,-589,3456,6,2,-8,
521,7,28,2023,11,5,20,875,2168,-575,3455,3,-1,-8,
522,7,28,2023,11,5,20,885,2174,-581,3459,3,-6,-8,
523,7,28,2023,11,5,20,895,2163,-586,3459,-1,-6,-8,
524,7,28,2023,11,5,20,905,2179,-592,3450,-7,-10,-3,
525,7,28,2023,11,5,20,915,2172,-587,3462,-4,-8,-8,
526,7,28,2023,11,5,20,925,2200,-579,3442,-5,-2,-11,
527,7,28,2023,11,5,20,935,2176,-584,3460,4,-17,-12,
528,7,28,2023,11,5,20,945,2179,-588,3454,6,-17,-10,
529,7,28,2023,11,5,20,955,2179,-577,3455,6,-16,-13,
530,7,28,2023,11,5,20,965,2178,-584,3451,4,-17,-13,
531,7,28,2023,11,5,20,975,2180,-585,3453,5,-21,-13,
532,7,28,2023,11,5,20,985,2182,-578,3445,8,-23,-13,
533,7,28,2023,11,5,20,995,2179,-576,3454,8,-21,-15,
534,7,28,2023,11,5,21,5,2188,-572,3451,6,-16,-15,
535,7,28,2023,11,5,21,15,2186,-570,3451,8,-16,-15,
536,7,28,2023,11,5,21,25,2186,-576,3457,2,-16,-13,
537,7,28,2023,11,5,21,35,2192,-576,3452,2,-16,-14,
538,7,28,2023,11,5,21,45,2195,-582,3455,2,-14,-10,
539,7,28,2023,11,5,21,55,2190,-575,3452,3,-13,-4,
540,7,28,2023,11,5,21,65,2187,-583,3447,4,-10,-5,
541,7,28,2023,11,5,21,75,2194,-573,3445,2,-6,-8,
542,7,28,2023,11,5,21,85,2176,-566,3434,5,-3,-5,
543,7,28,2023,11,5,21,95,2176,-590,3448,2,-1,-2,
544,7,28,2023,11,5,21,105,2184,-577,3447,4,-2,-4,
545,7,28,2023,11,5,21,115,2172,-584,3443,9,1,-8,
546,7,28,2023,11,5,21,125,2186,-573,3453,10,-4,-7,
547,7,28,2023,11,5,21,135,2175,-584,3446,5,1,-7,
548,7,28,2023,11,5,21,145,2185,-568,3451,9,-2,-10,
549,7,28,2023,11,5,21,155,2195,-568,3455,5,-3,-8,
550,7,28,2023,11,5,21,165,2191,-572,3458,1,-8,-4,
551,7,28,2023,11,5,21,175,2189,-572,3457,-4,-12,-2,
552,7,28,2023,11,5,21,185,2189,-575,3457,-3,-10,1,
553,7,28,2023,11,5,21,195,2188,-573,3449,-1,-14,4,
554,7,28,2023,11,5,21,205,2188,-576,3447,-5,-13,-1,
555,7,28,2023,11,5,21,215,2178,-582,3440,-8,-10,0,
556,7,28,2023,11,5,21,225,2191,-580,3434,-12,-9,5,
557,7,28,2023,11,5,21,235,2184,-578,3451,-7,-10,-1,
558,7,28,2023,11,5,21,245,2180,-582,3447,-4,-13,-2,
559,7,28,2023,11,5,21,255,2179,-579,3452,-5,-12,0,
560,7,28,2023,11,5,21,265,2189,-574,3459,-7,-15,0,
561,7,28,2023,11,5,21,275,2197,-580,3456,-9,-15,-2,
562,7,28,2023,11,5,21,285,2188,-570,3450,-8,-15,2,
563,7,28,2023,11,5,21,295,2194,-589,3442,-8,-16,1,
564,7,28,2023,11,5,21,305,2190,-576,3452,-10,-20,-2,
565,7,28,2023,11,5,21,315,2206,-574,3444,-12,-18,-4,
566,7,28,2023,11,5,21,325,2180,-570,3445,-9,-15,0,
567,7,28,2023,11,5,21,335,2187,-589,3444,-9,-16,-3,
568,7,28,2023,11,5,21,345,2183,-573,3443,-7,-16,1,
569,7,28,2023,11,5,21,355,2178,-582,3440,-9,-18,3,
570,7,28,2023,11,5,21,365,2187,-581,3447,-6,-19,-1,
571,7,28,2023,11,5,21,375,2190,-572,3447,-6,-23,-4,
572,7,28,2023,11,5,21,385,2205,-570,3449,-11,-19,0,
573,7,28,2023,11,5,21,395,2197,-578,3444,-13,-17,2,
574,7,28,2023,11,5,21,405,2194,-582,3439,-12,-16,0,
575,7,28,2023,11,5,21,415,2187,-570,3443,-12,-16,3,
576,7,28,2023,11,5,21,425,2181,-583,3446,-16,-10,4,
577,7,28,2023,11,5,21,435,2179,-598,3442,-23,-8,8,
578,7,28,2023,11,5,21,445,2209,-563,3449,-16,-15,2,
579,7,28,2023,11,5,21,455,2202,-581,3444,-13,-20,0,
580,7,28,2023,11,5,21,465,2201,-554,3454,-11,-24,4,
581,7,28,2023,11,5,21,475,2211,-595,3441,-14,-23,7,
582,7,28,2023,11,5,21,485,2195,-586,3441,-17,-19,4,
583,7,28,2023,11,5,21,495,2207,-571,3445,-16,-21,3,
584,7,28,2023,11,5,21,505,2201,-571,3437,-16,-19,6,
585,7,28,2023,11,5,21,515,2183,-588,3433,-21,-20,8,
586,7,28,2023,11,5,21,525,2198,-595,3435,-20,-21,9,
587,7,28,2023,11,5,21,535,2193,-572,3438,-18,-21,6,
588,7,28,2023,11,5,21,545,2187,-576,3442,-20,-24,8,
589,7,28,2023,11,5,21,555,2201,-599,3431,-18,-29,7,
590,7,28,2023,11,5,21,565,2199,-580,3441,-19,-32,4,
591,7,28,2023,11,5,21,575,2210,-569,3442,-23,-33,7,
592,7,28,2023,11,5,21,585,2199,-589,3440,-30,-32,11,
593,7,28,2023,11,5,21,595,2210,-574,3421,-29,-34,13,
594,7,28,2023,11,5,21,605,2192,-588,3429,-17,-31,4,
595,7,28,2023,11,5,21,615,2188,-602,3437,-19,-34,5,
596,7,28,2023,11,5,21,635,2207,-574,3428,-22,-36,4,
597,7,28,2023,11,5,21,645,2208,-596,3429,-19,-35,2,
598,7,28,2023,11,5,21,655,2213,-582,3427,-16,-30,1,
599,7,28,2023,11,5,21,665,2219,-596,3469,-20,-29,2,
600,7,28,2023,11,5,21,675,2230,-593,3471,-19,-30,4,
601,7,28,2023,11,5,21,685,2230,-580,3466,-21,-34,2,
602,7,28,2023,11,5,21,695,2223,-566,3454,-28,-41,9,
603,7,28,2023,11,5,21,705,2213,-576,3422,-29,-44,16,
604,7,28,2023,11,5,21,715,2213,-594,3403,-25,-38,16,
605,7,28,2023,11,5,21,725,2222,-579,3382,-23,-25,12,
606,7,28,2023,11,5,21,735,2222,-602,3355,-16,-7,11,
607,7,28,2023,11,5,21,745,2201,-610,3362,0,17,8,
608,7,28,2023,11,5,21,755,2198,-616,3366,14,39,-1,
609,7,28,2023,11,5,21,765,2207,-596,3387,24,54,-10,
610,7,28,2023,11,5,21,775,2189,-596,3405,32,60,-17,
611,7,28,2023,11,5,21,785,2199,-597,3424,32,62,-20,
612,7,28,2023,11,5,21,795,2215,-596,3425,38,61,-24,
613,7,28,2023,11,5,21,805,2213,-581,3447,40,61,-24,
614,7,28,2023,11,5,21,815,2225,-596,3467,33,61,-21,
615,7,28,2023,11,5,21,825,2242,-579,3494,33,54,-21,
616,7,28,2023,11,5,21,835,2224,-581,3493,23,49,-13,
617,7,28,2023,11,5,21,845,2228,-572,3485,12,39,-6,
618,7,28,2023,11,5,21,855,2218,-574,3495,17,30,-10,
619,7,28,2023,11,5,21,865,2221,-586,3484,8,21,-10,
620,7,28,2023,11,5,21,875,2214,-571,3476,3,11,-9,
621,7,28,2023,11,5,21,885,2202,-575,3460,-5,0,-1,
622,7,28,2023,11,5,21,895,2193,-574,3436,-9,-7,-1,
623,7,28,2023,11,5,21,905,2195,-581,3420,-12,-15,-4,
624,7,28,2023,11,5,21,915,2191,-575,3396,-14,-15,-5,
625,7,28,2023,11,5,21,925,2189,-570,3390,-11,-12,-1,
626,7,28,2023,11,5,21,935,2196,-561,3392,-7,-7,0,
627,7,28,2023,11,5,21,945,2193,-582,3386,-7,0,0,
628,7,28,2023,11,5,21,955,2191,-584,3398,-4,8,2,
629,7,28,2023,11,5,21,965,2189,-587,3400,-2,17,-3,
630,7,28,2023,11,5,21,975,2192,-581,3419,-2,17,-4,
631,7,28,2023,11,5,21,985,2209,-588,3425,3,22,-1,
632,7,28,2023,11,5,21,995,2191,-574,3432,5,28,-3,
633,7,28,2023,11,5,22,5,2208,-591,3427,4,31,-1,
634,7,28,2023,11,5,22,15,2207,-582,3451,6,27,3,
635,7,28,2023,11,5,22,25,2221,-571,3457,8,27,-1,
636,7,28,2023,11,5,22,35,2225,-583,3456,9,31,0,
637,7,28,2023,11,5,22,45,2225,-581,3457,6,29,0,
638,7,28,2023,11,5,22,55,2203,-568,3464,4,30,3,
639,7,28,2023,11,5,22,65,2192,-589,3452,3,28,7,
640,7,28,2023,11,5,22,75,2173,-599,3442,4,21,7,
641,7,28,2023,11,5,22,85,2186,-588,3443,4,10,3,
642,7,28,2023,11,5,22,95,2188,-586,3436,1,4,-1,
643,7,28,2023,11,5,22,105,2194,-568,3450,0,-3,-2,
644,7,28,2023,11,5,22,115,2214,-575,3446,-2,-6,1,
645,7,28,2023,11,5,22,125,2217,-569,3446,-8,-9,7,
646,7,28,2023,11,5,22,135,2210,-568,3457,-13,-10,12,
647,7,28,2023,11,5,22,145,2198,-576,3451,-18,-16,14,
648,7,28,2023,11,5,22,155,2204,-579,3443,-21,-21,18,
649,7,28,2023,11,5,22,165,2193,-590,3439,-23,-19,22,
650,7,28,2023,11,5,22,175,2195,-595,3433,-22,-17,19,
651,7,28,2023,11,5,22,185,2197,-596,3425,-19,-16,13,
652,7,28,2023,11,5,22,195,2181,-593,3411,-19,-14,10,
653,7,28,2023,11,5,22,205,2185,-595,3407,-13,-15,10,
654,7,28,2023,11,5,22,215,2186,-587,3414,-10,-12,11,
655,7,28,2023,11,5,22,225,2197,-589,3420,-7,-14,5,
656,7,28,2023,11,5,22,235,2203,-585,3442,-6,-12,6,
657,7,28,2023,11,5,22,245,2211,-586,3443,-4,-11,1,
658,7,28,2023,11,5,22,255,2209,-589,3447,-3,-11,-1,
659,7,28,2023,11,5,22,265,2206,-584,3439,-3,-11,-3,
660,7,28,2023,11,5,22,275,2198,-587,3438,-4,-8,-4,
661,7,28,2023,11,5,22,285,2206,-596,3426,-2,-9,-2,
662,7,28,2023,11,5,22,295,2199,-590,3425,0,-6,-2,
663,7,28,2023,11,5,22,305,2206,-589,3431,3,-6,-3,
664,7,28,2023,11,5,22,315,2211,-585,3439,8,-2,-7,
665,7,28,2023,11,5,22,325,2221,-581,3433,11,6,-8,
666,7,28,2023,11,5,22,335,2217,-580,3433,10,10,-9,
667,7,28,2023,11,5,22,345,2205,-580,3432,13,8,-8,
668,7,28,2023,11,5,22,355,2194,-577,3425,11,10,-6,
669,7,28,2023,11,5,22,365,2199,-584,3424,8,10,-4,
670,7,28,2023,11,5,22,375,2207,-582,3436,4,11,-6,
671,7,28,2023,11,5,22,385,2211,-581,3434,9,14,-5,
672,7,28,2023,11,5,22,395,2216,-581,3438,11,15,-4,
673,7,28,2023,11,5,22,405,2208,-569,3440,9,13,-5,
674,7,28,2023,11,5,22,415,2201,-580,3432,7,13,-1,
675,7,28,2023,11,5,22,425,2194,-577,3434,6,12,-2,
676,7,28,2023,11,5,22,435,2193,-578,3438,5,13,-2,
677,7,28,2023,11,5,22,445,2207,-589,3448,5,11,-4,
678,7,28,2023,11,5,22,455,2215,-588,3457,3,9,-1,
679,7,28,2023,11,5,22,465,2212,-588,3462,4,5,0,
680,7,28,2023,11,5,22,475,2210,-584,3451,2,0,-4,
681,7,28,2023,11,5,22,495,2191,-582,3426,1,-2,5,
682,7,28,2023,11,5,22,505,2192,-579,3422,-1,-1,1,
683,7,28,2023,11,5,22,515,2201,-584,3415,-2,1,3,
684,7,28,2023,11,5,22,525,2194,-587,3413,4,1,6,
685,7,28,2023,11,5,22,535,2196,-582,3424,5,4,0,
686,7,28,2023,11,5,22,545,2197,-580,3428,5,4,1,
687,7,28,2023,11,5,22,555,2200,-588,3436,7,7,-2,
688,7,28,2023,11,5,22,565,2219,-585,3452,5,5,-3,
689,7,28,2023,11,5,22,575,2214,-579,3459,6,1,1,
690,7,28,2023,11,5,22,585,2220,-576,3462,11,1,2,
691,7,28,2023,11,5,22,595,2206,-578,3461,2,-1,6,
692,7,28,2023,11,5,22,605,2209,-588,3452,-1,-11,9,
693,7,28,2023,11,5,22,615,2211,-577,3450,0,-13,8,
694,7,28,2023,11,5,22,625,2202,-592,3440,-1,-7,2,
695,7,28,2023,11,5,22,635,2197,-588,3429,3,-9,-1,
696,7,28,2023,11,5,22,645,2210,-581,3432,9,-14,-6,
697,7,28,2023,11,5,22,655,2201,-579,3435,2,-11,-5,
698,7,28,2023,11,5,22,665,2204,-568,3437,4,-11,-5,
699,7,28,2023,11,5,22,675,2210,-572,3415,7,-13,-5,
700,7,28,2023,11,5,22,685,2206,-574,3422,3,-11,-2,
701,7,28,2023,11,5,22,695,2195,-587,3413,0,-5,1,
702,7,28,2023,11,5,22,705,2195,-572,3410,3,-1,-1,
703,7,28,2023,11,5,22,715,2195,-573,3414,4,3,-1,
704,7,28,2023,11,5,22,725,2202,-581,3422,5,2,0,
705,7,28,2023,11,5,22,735,2209,-580,3447,4,3,-2,
706,7,28,2023,11,5,22,745,2213,-582,3451,3,3,-3,
707,7,28,2023,11,5,22,755,2210,-572,3448,3,-1,-2,
708,7,28,2023,11,5,22,765,2210,-574,3445,0,-3,1,
709,7,28,2023,11,5,22,775,2211,-575,3453,-4,-10,2,
710,7,28,2023,11,5,22,785,2211,-579,3449,-10,-13,5,
711,7,28,2023,11,5,22,795,2215,-580,3450,-9,-13,6,
712,7,28,2023,11,5,22,805,2210,-577,3447,-10,-16,9,
713,7,28,2023,11,5,22,815,2208,-575,3446,-10,-17,6,
714,7,28,2023,11,5,22,825,2213,-579,3442,-14,-21,10,
715,7,28,2023,11,5,22,835,2211,-578,3433,-15,-20,7,
716,7,28,2023,11,5,22,845,2211,-580,3439,-12,-22,8,
717,7,28,2023,11,5,22,855,2216,-583,3427,-14,-20,9,
718,7,28,2023,11,5,22,865,2215,-588,3414,-13,-20,8,
719,7,28,2023,11,5,22,875,2200,-584,3409,-10,-13,6,
720,7,28,2023,11,5,22,885,2209,-581,3400,-6,-9,7,
721,7,28,2023,11,5,22,895,2208,-574,3404,-4,-5,3,
722,7,28,2023,11,5,22,905,2211,-582,3411,-3,2,6,
723,7,28,2023,11,5,22,915,2223,-577,3425,-5,9,9,
724,7,28,2023,11,5,22,925,2213,-574,3428,-4,10,12,
725,7,28,2023,11,5,22,935,2214,-587,3440,-5,7,13,
726,7,28,2023,11,5,22,945,2232,-579,3441,-4,9,12,
727,7,28,2023,11,5,22,955,2221,-571,3435,-5,10,14,
728,7,28,2023,11,5,22,965,2220,-572,3434,-10,11,17,
729,7,28,2023,11,5,22,975,2228,-574,3415,-11,18,20,
730,7,28,2023,11,5,22,985,2212,-580,3401,-6,27,23,
731,7,28,2023,11,5,22,995,2199,-598,3394,-4,39,22,
732,7,28,2023,11,5,23,5,2186,-617,3382,4,47,15,
733,7,28,2023,11,5,23,15,2180,-604,3389,19,59,5,
734,7,28,2023,11,5,23,25,2193,-599,3402,27,62,-5,
735,7,28,2023,11,5,23,35,2197,-592,3417,32,65,-9,
736,7,28,2023,11,5,23,45,2200,-580,3442,35,63,-15,
737,7,28,2023,11,5,23,55,2214,-566,3471,34,62,-15,
738,7,28,2023,11,5,23,65,2237,-571,3496,30,55,-9,
739,7,28,2023,11,5,23,75,2225,-570,3496,24,47,-4,
740,7,28,2023,11,5,23,85,2215,-579,3482,20,39,-4,
741,7,28,2023,11,5,23,95,2214,-578,3468,20,31,-3,
742,7,28,2023,11,5,23,105,2195,-587,3455,14,24,-3,
743,7,28,2023,11,5,23,115,2188,-594,3444,18,20,-7,
744,7,28,2023,11,5,23,125,2183,-599,3440,21,18,-11,
745,7,28,2023,11,5,23,135,2195,-578,3431,25,17,-16,
746,7,28,2023,11,5,23,145,2180,-588,3436,31,18,-18,
747,7,28,2023,11,5,23,155,2185,-579,3419,32,13,-21,
748,7,28,2023,11,5,23,165,2193,-567,3416,32,13,-25,
749,7,28,2023,11,5,23,175,2181,-549,3421,33,13,-23,
750,7,28,2023,11,5,23,185,2191,-556,3416,27,12,-18,
751,7,28,2023,11,5,23,195,2189,-562,3420,22,17,-18,
752,7,28,2023,11,5,23,205,2205,-549,3439,20,20,-14,
753,7,28,2023,11,5,23,215,2209,-553,3446,19,24,-11,
754,7,28,2023,11,5,23,225,2203,-564,3448,15,24,-11,
755,7,28,2023,11,5,23,235,2206,-549,3458,12,19,-7,
756,7,28,2023,11,5,23,245,2201,-541,3466,4,8,1,
757,7,28,2023,11,5,23,255,2203,-554,3469,-4,4,2,
758,7,28,2023,11,5,23,265,2215,-559,3461,-8,0,7,
759,7,28,2023,11,5,23,275,2212,-559,3449,-10,-4,12,
760,7,28,2023,11,5,23,285,2200,-563,3452,-12,-5,11,
761,7,28,2023,11,5,23,295,2203,-574,3445,-15,-4,13,
762,7,28,2023,11,5,23,305,2209,-582,3449,-13,0,14,
763,7,28,2023,11,5,23,315,2205,-566,3452,-12,2,13,
764,7,28,2023,11,5,23,325,2214,-582,3440,-10,3,10,
765,7,28,2023,11,5,23,335,2186,-567,3437,-7,6,3,
766,7,28,2023,11,5,23,355,2186,-577,3427,-2,6,6,
767,7,28,2023,11,5,23,365,2182,-577,3430,0,7,5,
768,7,28,2023,11,5,23,375,2191,-575,3435,1,7,-6,
769,7,28,2023,11,5,23,385,2204,-561,3429,3,5,-7,
770,7,28,2023,11,5,23,395,2197,-556,3440,3,5,-1,
771,7,28,2023,11,5,23,405,2202,-571,3435,3,5,-4,
772,7,28,2023,11,5,23,415,2204,-563,3435,0,3,-2,
773,7,28,2023,11,5,23,425,2205,-564,3440,-5,6,0,
774,7,28,2023,11,5,23,435,2194,-560,3441,-3,8,2,
775,7,28,2023,11,5,23,445,2194,-570,3441,0,9,2,
776,7,28,2023,11,5,23,455,2198,-573,3441,-3,11,5,
777,7,28,2023,11,5,23,465,2194,-567,3441,1,11,6,
778,7,28,2023,11,5,23,475,2198,-576,3440,1,8,4,
779,7,28,2023,11,5,23,485,2195,-580,3442,3,10,5,
780,7,28,2023,11,5,23,495,2196,-576,3448,2,14,5,
781,7,28,2023,11,5,23,505,2197,-577,3445,5,13,4,
782,7,28,2023,11,5,23,515,2194,-570,3441,8,11,-1,
783,7,28,2023,11,5,23,525,2194,-566,3438,5,12,-1,
784,7,28,2023,11,5,23,535,2195,-555,3439,5,10,3,
785,7,28,2023,11,5,23,545,2198,-555,3440,7,11,8,
786,7,28,2023,11,5,23,555,2207,-565,3450,2,17,12,
787,7,28,2023,11,5,23,565,2196,-579,3446,1,19,15,
788,7,28,2023,11,5,23,575,2185,-588,3431,1,17,11,
789,7,28,2023,11,5,23,585,2205,-577,3437,3,17,7,
790,7,28,2023,11,5,23,595,2199,-561,3435,6,18,4,
791,7,28,2023,11,5,23,605,2183,-561,3445,5,21,5,
792,7,28,2023,11,5,23,615,2197,-560,3442,2,22,8,
793,7,28,2023,11,5,23,625,2192,-565,3442,3,21,9,
794,7,28,2023,11,5,23,635,2196,-575,3451,3,18,8,
795,7,28,2023,11,5,23,645,2194,-565,3456,3,10,7,
796,7,28,2023,11,5,23,655,2202,-576,3446,-3,10,8,
797,7,28,2023,11,5,23,665,2200,-579,3449,0,9,4,
798,7,28,2023,11,5,23,675,2192,-568,3446,2,6,-1,
799,7,28,2023,11,5,23,685,2190,-570,3449,0,6,1,
800,7,28,2023,11,5,23,695,2196,-566,3455,1,5,1,
801,7,28,2023,11,5,23,705,2194,-569,3446,-1,6,-2,
802,7,28,2023,11,5,23,715,2189,-566,3441,-6,3,-2,
803,7,28,2023,11,5,23,725,2193,-573,3450,-1,-1,0,
804,7,28,2023,11,5,23,735,2187,-575,3448,-2,-1,1,
805,7,28,2023,11,5,23,745,2189,-567,3435,-2,-1,1,
806,7,28,2023,11,5,23,755,2197,-575,3442,-2,2,-3,
807,7,28,2023,11,5,23,765,2196,-569,3445,-1,5,-2,
808,7,28,2023,11,5,23,775,2189,-566,3443,-1,2,3,
809,7,28,2023,11,5,23,785,2191,-568,3448,-1,1,4,
810,7,28,2023,11,5,23,795,2196,-571,3449,-1,-1,2,
811,7,28,2023,11,5,23,805,2190,-570,3441,0,-3,4,
812,7,28,2023,11,5,23,815,2190,-567,3444,1,-4,3,
813,7,28,2023,11,5,23,825,2199,-570,3444,-3,-5,-1,
814,7,28,2023,11,5,23,835,2200,-583,3439,1,-3,-2,
815,7,28,2023,11,5,23,845,2191,-564,3439,1,-1,-2,
816,7,28,2023,11,5,23,855,2188,-570,3442,4,1,0,
817,7,28,2023,11,5,23,865,2193,-575,3441,4,2,2,
818,7,28,2023,11,5,23,875,2196,-566,3441,7,0,-2,
819,7,28,2023,11,5,23,885,2194,-561,3442,8,7,-2,
820,7,28,2023,11,5,23,895,2198,-563,3442,4,7,0,
821,7,28,2023,11,5,23,905,2191,-584,3436,3,6,-1,
822,7,28,2023,11,5,23,915,2197,-561,3441,8,12,-4,
823,7,28,2023,11,5,23,925,2193,-562,3451,5,11,-2,
824,7,28,2023,11,5,23,935,2202,-582,3444,6,8,-5,
825,7,28,2023,11,5,23,945,2206,-545,3448,7,11,-3,
826,7,28,2023,11,5,23,955,2196,-574,3444,5,11,-1,
827,7,28,2023,11,5,23,965,2211,-557,3451,7,11,0,
828,7,28,2023,11,5,23,975,2188,-565,3437,3,10,6,
829,7,28,2023,11,5,23,985,2187,-566,3443,2,12,7,
830,7,28,2023,11,5,23,995,2187,-564,3442,3,14,3,
831,7,28,2023,11,5,24,5,2206,-568,3446,3,13,1,
832,7,28,2023,11,5,24,15,2184,-568,3450,4,13,1,
833,7,28,2023,11,5,24,25,2192,-575,3439,8,15,-1,
834,7,28,2023,11,5,24,35,2201,-558,3453,5,15,-2,
835,7,28,2023,11,5,24,45,2189,-565,3448,4,14,-4,
836,7,28,2023,11,5,24,55,2196,-557,3448,6,17,-1,
837,7,28,2023,11,5,24,65,2191,-569,3450,3,16,1,
838,7,28,2023,11,5,24,75,2188,-566,3448,6,12,-1,
839,7,28,2023,11,5,24,85,2189,-552,3443,6,12,0,
840,7,28,2023,11,5,24,95,2189,-572,3446,6,8,3,
841,7,28,2023,11,5,24,105,2197,-561,3445,5,9,0,
842,7,28,2023,11,5,24,115,2194,-547,3447,5,12,0,
843,7,28,2023,11,5,24,125,2193,-563,3446,3,13,5,
844,7,28,2023,11,5,24,135,2192,-568,3446,2,9,6,
845,7,28,2023,11,5,24,145,2192,-563,3445,2,10,4,
846,7,28,2023,11,5,24,155,2188,-567,3454,0,11,6,
847,7,28,2023,11,5,24,165,2181,-576,3445,5,4,-1,
848,7,28,2023,11,5,24,175,2193,-558,3444,3,7,-2,
849,7,28,2023,11,5,24,185,2185,-565,3448,1,10,0,
850,7,28,2023,11,5,24,195,2188,-565,3445,4,1,2,
851,7,28,2023,11,5,24,215,2191,-562,3437,2,7,1,
852,7,28,2023,11,5,24,225,2190,-559,3440,1,6,5,
853,7,28,2023,11,5,24,235,2192,-568,3445,2,7,2,
854,7,28,2023,11,5,24,245,2188,-554,3451,2,10,3,
855,7,28,2023,11,5,24,255,2191,-564,3451,2,10,3,
856,7,28,2023,11,5,24,265,2188,-577,3448,0,10,2,
857,7,28,2023,11,5,24,275,2192,-560,3449,5,9,1,
858,7,28,2023,11,5,24,285,2186,-555,3446,5,8,3,
859,7,28,2023,11,5,24,295,2191,-565,3451,1,12,4,
860,7,28,2023,11,5,24,305,2189,-559,3445,1,12,-1,
861,7,28,2023,11,5,24,315,2188,-561,3441,5,9,1,
862,7,28,2023,11,5,24,325,2185,-559,3450,4,12,-1,
863,7,28,2023,11,5,24,335,2181,-558,3451,0,12,1,
864,7,28,2023,11,5,24,345,2192,-563,3449,2,7,5,
865,7,28,2023,11,5,24,355,2189,-555,3445,3,9,5,
866,7,28,2023,11,5,24,365,2196,-560,3448,3,9,4,
867,7,28,2023,11,5,24,375,2196,-552,3447,1,13,5,
868,7,28,2023,11,5,24,385,2189,-567,3448,-1,10,6,
869,7,28,2023,11,5,24,395,2195,-565,3449,1,11,7,
870,7,28,2023,11,5,24,405,2190,-559,3452,-3,10,7,
871,7,28,2023,11,5,24,415,2195,-566,3448,-1,10,6,
872,7,28,2023,11,5,24,425,2193,-568,3446,2,9,5,
873,7,28,2023,11,5,24,435,2186,-559,3447,0,13,5,
874,7,28,2023,11,5,24,445,2193,-556,3451,2,10,5,
875,7,28,2023,11,5,24,455,2185,-565,3445,-2,9,3,
876,7,28,2023,11,5,24,465,2189,-560,3443,0,11,2,
877,7,28,2023,11,5,24,475,2191,-561,3453,3,8,2,
878,7,28,2023,11,5,24,485,2183,-567,3456,-2,8,1,
879,7,28,2023,11,5,24,495,2189,-558,3447,-2,7,6,
880,7,28,2023,11,5,24,505,2184,-553,3448,-1,9,6,
881,7,28,2023,11,5,24,515,2185,-559,3451,-3,6,5,
882,7,28,2023,11,5,24,525,2187,-560,3447,-4,9,4,
883,7,28,2023,11,5,24,535,2190,-560,3452,-2,5,11,
884,7,28,2023,11,5,24,545,2193,-562,3456,1,9,8,
885,7,28,2023,11,5,24,555,2187,-573,3450,1,11,5,
886,7,28,2023,11,5,24,565,2189,-566,3451,2,12,6,
887,7,28,2023,11,5,24,575,2180,-569,3450,0,10,4,
888,7,28,2023,11,5,24,585,2189,-564,3450,0,11,3,
889,7,28,2023,11,5,24,595,2190,-563,3444,2,10,2,
890,7,28,2023,11,5,24,605,2189,-558,3453,2,8,4,
891,7,28,2023,11,5,24,615,2185,-553,3445,0,9,5,
892,7,28,2023,11,5,24,625,2188,-562,3444,2,11,3,
893,7,28,2023,11,5,24,635,2189,-564,3445,2,10,3,
894,7,28,2023,11,5,24,645,2188,-564,3443,5,10,0,
895,7,28,2023,11,5,24,655,2193,-561,3445,3,13,2,
896,7,28,2023,11,5,24,665,2187,-558,3459,4,20,2,
897,7,28,2023,11,5,24,675,2189,-552,3457,9,21,3,
898,7,28,2023,11,5,24,685,2186,-564,3452,6,16,3,
899,7,28,2023,11,5,24,695,2180,-560,3452,5,20,-1,
900,7,28,2023,11,5,24,705,2180,-553,3460,6,18,-3,
901,7,28,2023,11,5,24,715,2191,-551,3455,3,17,-3,
902,7,28,2023,11,5,24,725,2185,-555,3459,1,17,2,
903,7,28,2023,11,5,24,735,2188,-562,3454,4,14,2,
904,7,28,2023,11,5,24,745,2180,-562,3453,-2,13,4,
905,7,28,2023,11,5,24,755,2184,-573,3452,0,13,4,
906,7,28,2023,11,5,24,765,2195,-559,3452,4,11,0,
907,7,28,2023,11,5,24,775,2178,-554,3451,3,9,4,
908,7,28,2023,11,5,24,785,2167,-577,3450,3,9,1,
909,7,28,2023,11,5,24,795,2186,-556,3450,6,4,-4,
910,7,28,2023,11,5,24,805,2186,-554,3443,7,5,-4,
911,7,28,2023,11,5,24,815,2176,-565,3445,7,8,-5,
912,7,28,2023,11,5,24,825,2181,-555,3448,7,6,-6,
913,7,28,2023,11,5,24,835,2177,-550,3457,5,6,-2,
914,7,28,2023,11,5,24,845,2188,-558,3458,0,7,-2,
915,7,28,2023,11,5,24,855,2192,-554,3463,1,6,-2,
916,7,28,2023,11,5,24,865,2182,-555,3460,1,3,1,
917,7,28,2023,11,5,24,875,2187,-549,3449,-3,3,1,
918,7,28,2023,11,5,24,885,2181,-562,3452,-4,3,2,
919,7,28,2023,11,5,24,895,2184,-560,3450,-4,1,1,
920,7,28,2023,11,5,24,905,2182,-558,3452,-3,7,0,
921,7,28,2023,11,5,24,915,2179,-566,3453,-3,5,2,
922,7,28,2023,11,5,24,925,2187,-556,3460,-2,4,-1,
923,7,28,2023,11,5,24,935,2188,-555,3455,-1,8,1,
924,7,28,2023,11,5,24,945,2185,-561,3454,0,4,4,
925,7,28,2023,11,5,24,955,2187,-563,3454,-2,5,2,
926,7,28,2023,11,5,24,965,2181,-560,3451,-1,7,-1,
927,7,28,2023,11,5,24,975,2187,-564,3441,2,11,-1,
928,7,28,2023,11,5,24,985,2180,-553,3453,3,10,-2,
929,7,28,2023,11,5,24,995,2176,-554,3457,6,10,-4,
930,7,28,2023,11,5,25,5,2178,-559,3452,9,5,-2,
931,7,28,2023,11,5,25,15,2180,-558,3445,5,7,1,
932,7,28,2023,11,5,25,25,2173,-544,3465,3,5,-1,
933,7,28,2023,11,5,25,35,2181,-572,3455,2,5,1,
934,7,28,2023,11,5,25,45,2188,-555,3456,2,5,0,
935,7,28,2023,11,5,25,55,2184,-555,3455,0,6,2,
936,7,28,2023,11,5,25,75,2199,-559,3459,1,3,-1,
937,7,28,2023,11,5,25,85,2184,-552,3445,0,4,-1,
938,7,28,2023,11,5,25,95,2163,-552,3449,1,8,1,
939,7,28,2023,11,5,25,105,2191,-559,3452,-1,5,1,
940,7,28,2023,11,5,25,115,2174,-558,3448,0,7,3,
941,7,28,2023,11,5,25,125,2180,-554,3450,3,8,2,
942,7,28,2023,11,5,25,135,2189,-562,3448,3,6,0,
943,7,28,2023,11,5,25,145,2171,-558,3458,2,9,0,
944,7,28,2023,11,5,25,155,2179,-562,3457,2,12,-1,
945,7,28,2023,11,5,25,165,2181,-550,3460,5,12,-4,
946,7,28,2023,11,5,25,175,2181,-558,3446,5,10,-5,
947,7,28,2023,11,5,25,185,2179,-550,3450,5,10,-3,
948,7,28,2023,11,5,25,195,2179,-554,3452,5,12,-6,
949,7,28,2023,11,5,25,205,2176,-554,3451,7,7,-2,
950,7,28,2023,11,5,25,215,2187,-556,3458,4,8,-2,
951,7,28,2023,11,5,25,225,2188,-556,3459,3,5,-5,
952,7,28,2023,11,5,25,235,2187,-553,3456,3,5,-3,
953,7,28,2023,11,5,25,245,2185,-555,3463,5,1,-1,
954,7,28,2023,11,5,25,255,2183,-561,3457,2,5,-2,
955,7,28,2023,11,5,25,265,2165,-545,3458,1,3,-3,
956,7,28,2023,11,5,25,275,2180,-559,3448,3,-1,-6,
957,7,28,2023,11,5,25,285,2186,-552,3456,1,1,-4,
958,7,28,2023,11,5,25,295,2171,-557,3464,4,0,-7,
959,7,28,2023,11,5,25,305,2183,-560,3451,5,2,-9,
960,7,28,2023,11,5,25,315,2182,-550,3458,6,-2,-6,
961,7,28,2023,11,5,25,325,2179,-558,3447,5,-3,-3,
962,7,28,2023,11,5,25,335,2191,-555,3445,3,0,-7,
963,7,28,2023,11,5,25,345,2183,-550,3454,1,2,-5,
964,7,28,2023,11,5,25,355,2186,-554,3456,3,0,1,
965,7,28,2023,11,5,25,365,2182,-546,3460,3,2,-8,
966,7,28,2023,11,5,25,375,2188,-554,3451,2,5,-4,
967,7,28,2023,11,5,25,385,2185,-557,3450,0,4,1,
968,7,28,2023,11,5,25,395,2181,-549,3453,0,4,2,
969,7,28,2023,11,5,25,405,2181,-547,3452,-1,2,3,
970,7,28,2023,11,5,25,415,2182,-550,3447,-3,3,2,
971,7,28,2023,11,5,25,425,2183,-556,3449,-3,6,0,
972,7,28,2023,11,5,25,435,2182,-556,3453,-4,3,0,
973,7,28,2023,11,5,25,445,2184,-552,3451,-1,6,5,
974,7,28,2023,11,5,25,455,2181,-543,3457,0,5,5,
975,7,28,2023,11,5,25,465,2177,-554,3449,-4,6,4,
976,7,28,2023,11,5,25,475,2182,-545,3456,-5,6,6,
977,7,28,2023,11,5,25,485,2181,-558,3451,-4,6,7,
978,7,28,2023,11,5,25,495,2191,-559,3451,-2,6,8,
979,7,28,2023,11,5,25,505,2180,-551,3451,-7,12,5,
980,7,28,2023,11,5,25,515,2177,-557,3451,-4,10,4,
981,7,28,2023,11,5,25,525,2180,-551,3446,-3,10,7,
982,7,28,2023,11,5,25,535,2176,-558,3450,-3,13,7,
983,7,28,2023,11,5,25,545,2190,-555,3454,0,11,4,
984,7,28,2023,11,5,25,555,2183,-553,3460,-1,10,5,
985,7,28,2023,11,5,25,565,2177,-554,3469,-1,12,5,
986,7,28,2023,11,5,25,575,2181,-550,3454,-2,13,4,
987,7,28,2023,11,5,25,585,2185,-553,3459,-3,13,3,
988,7,28,2023,11,5,25,595,2178,-561,3456,2,13,5,
989,7,28,2023,11,5,25,605,2178,-549,3461,5,12,2,
990,7,28,2023,11,5,25,615,2179,-551,3458,1,14,1,
991,7,28,2023,11,5,25,625,2187,-561,3446,-2,13,2,
992,7,28,2023,11,5,25,635,2178,-557,3449,0,16,3,
993,7,28,2023,11,5,25,645,2170,-557,3453,2,12,3,
994,7,28,2023,11,5,25,655,2174,-552,3460,3,11,2,
995,7,28,2023,11,5,25,665,2183,-560,3456,3,10,3,
996,7,28,2023,11,5,25,675,2181,-552,3458,1,6,4,
997,7,28,2023,11,5,25,685,2173,-558,3456,-3,10,1,
998,7,28,2023,11,5,25,695,2177,-558,3447,0,11,1,
999,7,28,2023,11,5,25,705,2174,-554,3449,2,10,2,
1000,7,28,2023,11,5,25,715,2172,-557,3462,3,15,3,
1001,7,28,2023,11,5,25,725,2178,-552,3458,5,11,0,
1002,7,28,2023,11,5,25,735,2174,-552,3461,2,12,0,
1003,7,28,2023,11,5,25,745,2175,-551,3464,5,11,1,
1004,7,28,2023,11,5,25,755,2171,-547,3456,5,14,2,
1005,7,28,2023,11,5,25,765,2176,-547,3455,2,14,-2,
1006,7,28,2023,11,5,25,775,2177,-547,3464,0,11,-2,
1007,7,28,2023,11,5,25,785,2176,-546,3465,1,8,4,
1008,7,28,2023,11,5,25,795,2177,-547,3461,-3,12,2,
1009,7,28,2023,11,5,25,805,2182,-554,3463,-4,9,3,
1010,7,28,2023,11,5,25,815,2178,-560,3451,-4,7,8,
1011,7,28,2023,11,5,25,825,2182,-552,3457,-5,8,2,
1012,7,28,2023,11,5,25,835,2176,-553,3451,-1,10,5,
1013,7,28,2023,11,5,25,845,2170,-558,3459,-3,10,2,
1014,7,28,2023,11,5,25,855,2171,-558,3455,-2,6,-1,
1015,7,28,2023,11,5,25,865,2173,-555,3457,0,7,1,
1016,7,28,2023,11,5,25,875,2171,-548,3458,0,5,1,
1017,7,28,2023,11,5,25,885,2177,-549,3460,1,4,1,
1018,7,28,2023,11,5,25,895,2180,-544,3455,-1,8,-1,
1019,7,28,2023,11,5,25,905,2174,-548,3455,-4,6,0,
1020,7,28,2023,11,5,25,915,2178,-555,3458,-3,5,1,
1021,7,28,2023,11,5,25,935,2175,-554,3466,-5,7,2,
1022,7,28,2023,11,5,25,945,2179,-553,3457,-5,8,2,
1023,7,28,2023,11,5,25,955,2179,-560,3461,-4,1,3,
1024,7,28,2023,11,5,25,965,2174,-555,3460,-1,3,-2,
1025,7,28,2023,11,5,25,975,2182,-553,3458,1,4,-3,
1026,7,28,2023,11,5,25,985,2180,-558,3456,1,0,-1,
1027,7,28,2023,11,5,25,995,2178,-550,3458,0,1,-1,
1028,7,28,2023,11,5,26,5,2175,-553,3457,-1,2,2,
1029,7,28,2023,11,5,26,15,2171,-549,3452,-1,-1,0,
1030,7,28,2023,11,5,26,25,2177,-555,3448,-1,-2,-1,
1031,7,28,2023,11,5,26,35,2183,-553,3451,-2,2,0,
1032,7,28,2023,11,5,26,45,2175,-546,3458,-3,1,1,
1033,7,28,2023,11,5,26,55,2172,-548,3459,-2,-1,0,
1034,7,28,2023,11,5,26,65,2171,-552,3455,-4,-1,0,
1035,7,28,2023,11,5,26,75,2181,-553,3455,-3,-2,1,
1036,7,28,2023,11,5,26,85,2181,-553,3460,-3,-4,2,
1037,7,28,2023,11,5,26,95,2183,-541,3456,-4,-2,3,
1038,7,28,2023,11,5,26,105,2174,-561,3458,-4,1,-2,
1039,7,28,2023,11,5,26,115,2191,-552,3457,-2,-3,-2,
1040,7,28,2023,11,5,26,125,2177,-545,3457,0,0,2,
1041,7,28,2023,11,5,26,135,2174,-545,3458,-3,1,1,
1042,7,28,2023,11,5,26,145,2185,-549,3455,-4,2,2,
1043,7,28,2023,11,5,26,155,2178,-548,3450,-1,2,-1,
1044,7,28,2023,11,5,26,165,2185,-545,3460,-4,1,3,
1045,7,28,2023,11,5,26,175,2182,-551,3451,-2,5,10,
1046,7,28,2023,11,5,26,185,2186,-556,3447,-2,8,8,
1047,7,28,2023,11,5,26,195,2163,-562,3448,1,7,8,
1048,7,28,2023,11,5,26,205,2179,-562,3450,3,5,1,
1049,7,28,2023,11,5,26,215,2192,-554,3461,3,6,0,
1050,7,28,2023,11,5,26,225,2172,-558,3458,5,9,1,
1051,7,28,2023,11,5,26,235,2168,-552,3452,4,8,-2,
1052,7,28,2023,11,5,26,245,2191,-543,3455,5,7,-4,
1053,7,28,2023,11,5,26,255,2178,-545,3460,3,11,-1,
1054,7,28,2023,11,5,26,265,2161,-560,3461,0,6,0,
1055,7,28,2023,11,5,26,275,2169,-551,3457,2,5,-2,
1056,7,28,2023,11,5,26,285,2179,-552,3467,5,6,-2,
1057,7,28,2023,11,5,26,295,2189,-556,3467,3,3,-2,
1058,7,28,2023,11,5,26,305,2188,-548,3472,1,2,-3,
1059,7,28,2023,11,5,26,315,2177,-553,3454,1,3,-2,
1060,7,28,2023,11,5,26,325,2178,-550,3456,1,-2,-4,
1061,7,28,2023,11,5,26,335,2172,-547,3466,-2,-3,-3,
1062,7,28,2023,11,5,26,345,2175,-551,3454,-2,1,3,
1063,7,28,2023,11,5,26,355,2183,-551,3453,-1,-1,0,
1064,7,28,2023,11,5,26,365,2179,-548,3447,0,-2,0,
1065,7,28,2023,11,5,26,375,2170,-545,3452,-1,-1,2,
1066,7,28,2023,11,5,26,385,2169,-551,3458,-1,1,3,
1067,7,28,2023,11,5,26,395,2178,-554,3444,0,1,4,
1068,7,28,2023,11,5,26,405,2173,-552,3451,2,2,3,
1069,7,28,2023,11,5,26,415,2178,-546,3455,1,4,0,
1070,7,28,2023,11,5,26,425,2182,-553,3452,1,5,-2,
1071,7,28,2023,11,5,26,435,2176,-551,3448,8,6,-3,
1072,7,28,2023,11,5,26,445,2175,-551,3449,7,7,-3,
1073,7,28,2023,11,5,26,455,2175,-544,3457,3,6,-1,
1074,7,28,2023,11,5,26,465,2180,-554,3467,1,4,-2,
1075,7,28,2023,11,5,26,475,2181,-552,3463,3,6,-1,
1076,7,28,2023,11,5,26,485,2179,-549,3457,0,4,1,
1077,7,28,2023,11,5,26,495,2180,-541,3463,0,2,-4,
1078,7,28,2023,11,5,26,505,2176,-554,3462,-1,3,-2,
1079,7,28,2023,11,5,26,515,2176,-561,3467,1,2,1,
1080,7,28,2023,11,5,26,525,2186,-545,3467,1,1,-3,
1081,7,28,2023,11,5,26,535,2185,-551,3460,-1,-3,-3,
1082,7,28,2023,11,5,26,545,2181,-549,3464,-1,0,-3,
1083,7,28,2023,11,5,26,555,2176,-544,3459,0,-3,-4,
1084,7,28,2023,11,5,26,565,2188,-544,3458,-2,-8,0,
1085,7,28,2023,11,5,26,575,2180,-539,3452,-5,-9,-1,
1086,7,28,2023,11,5,26,585,2182,-547,3456,-6,-12,1,
1087,7,28,2023,11,5,26,595,2184,-544,3461,-8,-12,0,
1088,7,28,2023,11,5,26,605,2181,-550,3454,-8,-8,-1,
1089,7,28,2023,11,5,26,615,2190,-554,3453,-10,-8,3,
1090,7,28,2023,11,5,26,625,2183,-559,3454,-7,-10,1,
1091,7,28,2023,11,5,26,635,2178,-554,3449,-9,-9,-3,
1092,7,28,2023,11,5,26,645,2173,-556,3456,-6,-8,-3,
1093,7,28,2023,11,5,26,655,2181,-547,3451,-3,-11,-1,
1094,7,28,2023,11,5,26,665,2184,-546,3454,-4,-9,-3,
1095,7,28,2023,11,5,26,675,2182,-557,3453,-3,-12,-3,
1096,7,28,2023,11,5,26,685,2182,-542,3452,-2,-11,-4,
1097,7,28,2023,11,5,26,695,2186,-555,3455,-2,-13,-4,
1098,7,28,2023,11,5,26,705,2187,-553,3457,-4,-13,-3,
1099,7,28,2023,11,5,26,715,2187,-544,3458,-3,-12,-3,
1100,7,28,2023,11,5,26,725,2192,-549,3456,-3,-6,-4,
1101,7,28,2023,11,5,26,735,2195,-543,3454,-4,-6,-7,
1102,7,28,2023,11,5,26,745,2186,-549,3455,-5,-8,-4,
1103,7,28,2023,11,5,26,755,2186,-548,3459,-4,-4,-2,
1104,7,28,2023,11,5,26,765,2189,-546,3461,-3,-7,-1,
1105,7,28,2023,11,5,26,775,2188,-550,3452,-5,-10,0,
1106,7,28,2023,11,5,26,795,2186,-554,3448,2,-7,-2,
1107,7,28,2023,11,5,26,805,2182,-539,3449,2,-5,-1,
1108,7,28,2023,11,5,26,815,2185,-545,3450,2,-4,4,
1109,7,28,2023,11,5,26,825,2189,-557,3448,0,2,2,
1110,7,28,2023,11,5,26,835,2174,-549,3447,-1,0,0,
1111,7,28,2023,11,5,26,845,2191,-547,3439,1,0,-4,
1112,7,28,2023,11,5,26,855,2198,-545,3453,1,5,-5,
1113,7,28,2023,11,5,26,865,2186,-552,3460,1,4,1,
1114,7,28,2023,11,5,26,875,2190,-540,3458,2,3,3,
1115,7,28,2023,11,5,26,885,2180,-545,3444,-3,7,4,
1116,7,28,2023,11,5,26,895,2180,-560,3454,1,4,3,
1117,7,28,2023,11,5,26,905,2199,-546,3456,1,4,3,
1118,7,28,2023,11,5,26,915,2176,-553,3444,-2,8,4,
1119,7,28,2023,11,5,26,925,2177,-555,3455,0,5,2,
1120,7,28,2023,11,5,26,935,2190,-550,3442,-1,1,3,
1121,7,28,2023,11,5,26,945,2175,-543,3453,-2,7,4,
1122,7,28,2023,11,5,26,955,2187,-550,3451,-2,8,0,
1123,7,28,2023,11,5,26,965,2194,-541,3460,-1,7,2,
1124,7,28,2023,11,5,26,975,2182,-542,3453,3,5,5,
1125,7,28,2023,11,5,26,985,2191,-548,3458,1,5,4,
1126,7,28,2023,11,5,26,995,2183,-547,3450,-2,10,4,
1127,7,28,2023,11,5,27,5,2179,-556,3447,-2,11,1,
1128,7,28,2023,11,5,27,15,2191,-560,3448,0,8,1,
1129,7,28,2023,11,5,27,25,2187,-548,3457,-1,9,3,
1130,7,28,2023,11,5,27,35,2187,-551,3458,-1,10,2,
1131,7,28,2023,11,5,27,45,2185,-545,3452,1,9,2,
1132,7,28,2023,11,5,27,55,2185,-542,3453,-2,6,0,
1133,7,28,2023,11,5,27,65,2186,-553,3448,-2,4,0,
1134,7,28,2023,11,5,27,75,2186,-549,3448,0,4,0,
1135,7,28,2023,11,5,27,85,2176,-544,3452,3,7,0,
1136,7,28,2023,11,5,27,95,2181,-545,3453,2,8,0,
1137,7,28,2023,11,5,27,105,2182,-559,3447,0,9,0,
1138,7,28,2023,11,5,27,115,2179,-549,3454,3,9,-1,
1139,7,28,2023,11,5,27,125,2185,-543,3454,2,8,-5,
1140,7,28,2023,11,5,27,135,2184,-546,3450,1,11,-1,
1141,7,28,2023,11,5,27,145,2183,-536,3451,6,9,0,
1142,7,28,2023,11,5,27,155,2176,-549,3451,1,9,-2,
1143,7,28,2023,11,5,27,165,2180,-549,3452,1,2,0,
1144,7,28,2023,11,5,27,175,2182,-543,3454,3,5,0,
1145,7,28,2023,11,5,27,185,2185,-543,3464,3,3,1,
1146,7,28,2023,11,5,27,195,2192,-546,3459,3,8,1,
1147,7,28,2023,11,5,27,205,2180,-538,3459,4,7,4,
1148,7,28,2023,11,5,27,215,2190,-542,3451,-1,7,2,
1149,7,28,2023,11,5,27,225,2177,-544,3462,-1,7,1,
1150,7,28,2023,11,5,27,235,2184,-550,3460,1,6,4,
1151,7,28,2023,11,5,27,245,2179,-541,3451,4,8,3,
1152,7,28,2023,11,5,27,255,2185,-539,3448,2,9,3,
1153,7,28,2023,11,5,27,265,2170,-552,3447,0,11,5,
1154,7,28,2023,11,5,27,275,2173,-559,3461,-2,10,1,
1155,7,28,2023,11,5,27,285,2194,-536,3460,-1,6,-2,
1156,7,28,2023,11,5,27,295,2176,-550,3470,-3,5,1,
1157,7,28,2023,11,5,27,305,2179,-541,3457,-2,5,-2,
1158,7,28,2023,11,5,27,315,2190,-541,3449,-1,4,0,
1159,7,28,2023,11,5,27,325,2185,-536,3458,0,2,0,
1160,7,28,2023,11,5,27,335,2178,-534,3455,0,0,-2,
1161,7,28,2023,11,5,27,345,2180,-546,3457,-5,0,2,
1162,7,28,2023,11,5,27,355,2181,-530,3452,-6,3,2,
1163,7,28,2023,11,5,27,365,2181,-539,3447,-5,1,4,
1164,7,28,2023,11,5,27,375,2179,-542,3451,-7,1,7,
1165,7,28,2023,11,5,27,385,2185,-541,3460,-11,-1,7,
1166,7,28,2023,11,5,27,395,2186,-552,3443,-8,0,9,
1167,7,28,2023,11,5,27,405,2182,-550,3447,-6,2,9,
1168,7,28,2023,11,5,27,415,2183,-543,3446,-8,6,8,
1169,7,28,2023,11,5,27,425,2186,-549,3451,-10,2,8,
1170,7,28,2023,11,5,27,435,2179,-552,3461,-9,2,7,
1171,7,28,2023,11,5,27,445,2184,-551,3451,-7,3,10,
1172,7,28,2023,11,5,27,455,2186,-542,3450,-7,3,9,
1173,7,28,2023,11,5,27,465,2180,-540,3455,-12,3,10,
1174,7,28,2023,11,5,27,475,2186,-551,3461,-10,2,8,
1175,7,28,2023,11,5,27,485,2194,-543,3461,-11,0,6,
1176,7,28,2023,11,5,27,495,2187,-547,3460,-14,-3,11,
1177,7,28,2023,11,5,27,505,2188,-562,3466,-16,0,12,
1178,7,28,2023,11,5,27,515,2191,-546,3462,-14,-2,9,
1179,7,28,2023,11,5,27,525,2181,-544,3456,-14,-1,11,
1180,7,28,2023,11,5,27,535,2178,-543,3461,-14,-2,12,
1181,7,28,2023,11,5,27,545,2179,-547,3448,-15,-5,13,
1182,7,28,2023,11,5,27,555,2169,-550,3438,-17,-2,13,
1183,7,28,2023,11,5,27,565,2175,-560,3431,-16,-1,12,
1184,7,28,2023,11,5,27,575,2175,-559,3438,-10,0,10,
1185,7,28,2023,11,5,27,585,2175,-557,3436,-6,2,8,
1186,7,28,2023,11,5,27,595,2176,-549,3445,-5,7,7,
1187,7,28,2023,11,5,27,605,2184,-550,3450,-6,6,4,
1188,7,28,2023,11,5,27,615,2198,-550,3457,-3,10,-1,
1189,7,28,2023,11,5,27,625,2182,-540,3466,-3,11,0,
1190,7,28,2023,11,5,27,635,2192,-554,3455,-8,9,3,
1191,7,28,2023,11,5,27,655,2182,-531,3474,-12,8,10,
1192,7,28,2023,11,5,27,665,2187,-567,3463,-16,4,9,
1193,7,28,2023,11,5,27,675,2197,-546,3465,-16,2,9,
1194,7,28,2023,11,5,27,685,2176,-564,3447,-14,1,6,
1195,7,28,2023,11,5,27,695,2175,-531,3457,-10,1,8,
1196,7,28,2023,11,5,27,705,2188,-549,3454,-15,-3,9,
1197,7,28,2023,11,5,27,715,2183,-548,3458,-14,-9,9,
1198,7,28,2023,11,5,27,725,2177,-536,3457,-19,-8,14,
1199,7,28,2023,11,5,27,735,2184,-557,3439,-23,-12,18,
1200,7,28,2023,11,5,27,745,2171,-535,3459,-16,-12,16,
1201,7,28,2023,11,5,27,755,2199,-577,3449,-28,-10,24,
1202,7,28,2023,11,5,27,765,2196,-551,3459,-35,-8,19,
1203,7,28,2023,11,5,27,775,2185,-585,3446,-33,-7,18,
1204,7,28,2023,11,5,27,785,2178,-567,3445,-26,-4,13,
1205,7,28,2023,11,5,27,795,2170,-563,3441,-23,-8,11,
1206,7,28,2023,11,5,27,805,2173,-579,3428,-22,-10,11,
1207,7,28,2023,11,5,27,815,2176,-559,3454,-20,-6,8,
1208,7,28,2023,11,5,27,825,2182,-571,3450,-17,-5,12,
1209,7,28,2023,11,5,27,835,2177,-572,3448,-13,-6,6,
1210,7,28,2023,11,5,27,845,2177,-565,3438,-8,-8,5,
1211,7,28,2023,11,5,27,855,2174,-580,3442,-8,-5,3,
1212,7,28,2023,11,5,27,865,2179,-558,3436,-4,-2,-2,
1213,7,28,2023,11,5,27,875,2188,-575,3453,-6,0,-1,
1214,7,28,2023,11,5,27,885,2176,-574,3448,-2,-3,-4,
1215,7,28,2023,11,5,27,895,2184,-564,3444,3,-7,-8,
1216,7,28,2023,11,5,27,905,2179,-568,3444,-1,-7,-4,
1217,7,28,2023,11,5,27,915,2187,-571,3444,-1,-6,-7,
1218,7,28,2023,11,5,27,925,2184,-555,3459,2,-4,-4,
1219,7,28,2023,11,5,27,935,2197,-564,3465,-1,-3,-3,
1220,7,28,2023,11,5,27,945,2193,-550,3477,-3,-5,-5,
1221,7,28,2023,11,5,27,955,2203,-563,3461,-5,-15,-4,
1222,7,28,2023,11,5,27,965,2190,-554,3466,-2,-13,0,
1223,7,28,2023,11,5,27,975,2197,-557,3476,-3,-19,2,
1224,7,28,2023,11,5,27,985,2203,-547,3472,-12,-22,0,
1225,7,28,2023,11,5,27,995,2172,-570,3457,-15,-27,8,
1226,7,28,2023,11,5,28,5,2178,-582,3447,-13,-31,3,
1227,7,28,2023,11,5,28,15,2190,-554,3448,-11,-32,-3,
1228,7,28,2023,11,5,28,25,2185,-571,3428,-12,-34,0,
1229,7,28,2023,11,5,28,35,2188,-541,3442,-7,-34,-4,
1230,7,28,2023,11,5,28,45,2199,-564,3437,-11,-30,-3,
1231,7,28,2023,11,5,28,55,2194,-551,3443,-10,-27,-1,
1232,7,28,2023,11,5,28,65,2199,-548,3444,-10,-28,-2,
1233,7,28,2023,11,5,28,75,2187,-562,3430,-9,-29,6,
1234,7,28,2023,11,5,28,85,2176,-576,3428,-7,-27,1,
1235,7,28,2023,11,5,28,95,2174,-565,3430,-8,-26,-6,
1236,7,28,2023,11,5,28,105,2189,-552,3437,-9,-31,-9,
1237,7,28,2023,11,5,28,115,2198,-552,3444,-11,-33,-2,
1238,7,28,2023,11,5,28,125,2206,-562,3451,-11,-31,-2,
1239,7,28,2023,11,5,28,135,2200,-559,3447,-9,-30,1,
1240,7,28,2023,11,5,28,145,2207,-568,3449,-9,-27,-1,
1241,7,28,2023,11,5,28,155,2207,-578,3447,-9,-27,-7,
1242,7,28,2023,11,5,28,165,2203,-562,3446,-3,-26,-7,
1243,7,28,2023,11,5,28,175,2207,-565,3449,-1,-26,-9,
1244,7,28,2023,11,5,28,185,2195,-572,3432,0,-26,-12,
1245,7,28,2023,11,5,28,195,2190,-566,3437,4,-29,-15,
1246,7,28,2023,11,5,28,205,2177,-572,3450,6,-33,-19,
1247,7,28,2023,11,5,28,215,2203,-582,3435,10,-32,-22,
1248,7,28,2023,11,5,28,225,2198,-561,3430,10,-34,-25,
1249,7,28,2023,11,5,28,235,2194,-542,3439,12,-34,-23,
1250,7,28,2023,11,5,28,245,2212,-549,3438,14,-34,-23,
1251,7,28,2023,11,5,28,255,2214,-551,3445,13,-32,-20,
1252,7,28,2023,11,5,28,265,2220,-555,3440,9,-32,-17,
1253,7,28,2023,11,5,28,275,2212,-531,3449,6,-30,-17,
1254,7,28,2023,11,5,28,285,2220,-557,3433,-1,-28,-12,
1255,7,28,2023,11,5,28,295,2213,-544,3440,2,-25,-7,
1256,7,28,2023,11,5,28,305,2224,-541,3435,3,-28,-2,
1257,7,28,2023,11,5,28,315,2210,-545,3444,3,-26,-2,
1258,7,28,2023,11,5,28,325,2217,-569,3427,-3,-25,-2,
1259,7,28,2023,11,5,28,335,2208,-564,3429,2,-15,-2,
1260,7,28,2023,11,5,28,345,2218,-555,3433,3,-15,-7,
1261,7,28,2023,11,5,28,355,2211,-566,3423,7,-11,-4,
1262,7,28,2023,11,5,28,365,2207,-563,3425,8,-3,-6,
1263,7,28,2023,11,5,28,375,2218,-539,3431,10,0,-5,
1264,7,28,2023,11,5,28,385,2219,-538,3426,10,3,-5,
1265,7,28,2023,11,5,28,395,2214,-549,3419,6,10,-6,
1266,7,28,2023,11,5,28,405,2207,-544,3421,4,15,-3,
1267,7,28,2023,11,5,28,415,2201,-557,3414,5,20,-2,
1268,7,28,2023,11,5,28,425,2202,-564,3414,9,17,-7,
1269,7,28,2023,11,5,28,435,2203,-566,3434,10,20,-10,
1270,7,28,2023,11,5,28,445,2221,-554,3445,12,18,-11,
1271,7,28,2023,11,5,28,455,2217,-566,3457,15,19,-17,
1272,7,28,2023,11,5,28,465,2215,-542,3452,15,21,-13,
1273,7,28,2023,11,5,28,475,2212,-542,3444,3,18,-11,
1274,7,28,2023,11,5,28,485,2216,-542,3447,-4,19,-12,
1275,7,28,2023,11,5,28,495,2199,-556,3457,5,5,-11,
1276,7,28,2023,11,5,28,515,2198,-548,3449,-2,-9,-8,
1277,7,28,2023,11,5,28,525,2221,-567,3444,-4,-13,-9,
1278,7,28,2023,11,5,28,535,2221,-536,3461,0,-15,-11,
1279,7,28,2023,11,5,28,545,2223,-550,3447,-4,-14,-7,
1280,7,28,2023,11,5,28,555,2228,-539,3442,-7,-14,-7,
1281,7,28,2023,11,5,28,565,2217,-541,3427,-12,-15,4,
1282,7,28,2023,11,5,28,575,2191,-559,3416,-16,-15,6,
1283,7,28,2023,11,5,28,585,2202,-565,3429,-12,-20,3,
1284,7,28,2023,11,5,28,595,2210,-568,3440,-7,-19,-2,
1285,7,28,2023,11,5,28,605,2205,-562,3438,-4,-22,-3,
1286,7,28,2023,11,5,28,615,2207,-560,3430,0,-20,-5,
1287,7,28,2023,11,5,28,625,2212,-548,3428,0,-18,-6,
1288,7,28,2023,11,5,28,635,2206,-540,3427,-4,-18,-4,
1289,7,28,2023,11,5,28,645,2214,-552,3436,-1,-21,0,
1290,7,28,2023,11,5,28,655,2212,-560,3434,1,-16,-5,
1291,7,28,2023,11,5,28,665,2206,-555,3421,5,-13,-8,
1292,7,28,2023,11,5,28,675,2217,-557,3422,9,-12,-9,
1293,7,28,2023,11,5,28,685,2219,-561,3426,10,-11,-13,
1294,7,28,2023,11,5,28,695,2216,-550,3439,12,-10,-19,
1295,7,28,2023,11,5,28,705,2213,-539,3437,11,-10,-14,
1296,7,28,2023,11,5,28,715,2229,-536,3438,5,-10,-18,
1297,7,28,2023,11,5,28,725,2212,-539,3447,7,-11,-13,
1298,7,28,2023,11,5,28,735,2216,-560,3429,9,-12,-11,
1299,7,28,2023,11,5,28,745,2221,-547,3425,5,-9,-9,
1300,7,28,2023,11,5,28,755,2205,-570,3425,7,-9,-8,
1301,7,28,2023,11,5,28,765,2201,-571,3432,15,-10,-16,
1302,7,28,2023,11,5,28,775,2220,-537,3438,22,-12,-28,
1303,7,28,2023,11,5,28,785,2255,-543,3436,18,-11,-22,
1304,7,28,2023,11,5,28,795,2210,-547,3428,16,-9,-17,
1305,7,28,2023,11,5,28,805,2231,-529,3450,5,-1,-16,
1306,7,28,2023,11,5,28,815,2235,-534,3442,5,-12,-9,
1307,7,28,2023,11,5,28,825,2207,-547,3426,8,-9,-8,
1308,7,28,2023,11,5,28,835,2230,-539,3421,9,-10,-8,
1309,7,28,2023,11,5,28,845,2220,-556,3426,14,-7,-5,
1310,7,28,2023,11,5,28,855,2215,-531,3413,15,-4,-12,
1311,7,28,2023,11,5,28,865,2221,-551,3410,11,-6,-12,
1312,7,28,2023,11,5,28,875,2206,-566,3409,17,0,-17,
1313,7,28,2023,11,5,28,885,2237,-483,3433,17,1,-20,
1314,7,28,2023,11,5,28,895,2228,-564,3424,8,2,-4,
1315,7,28,2023,11,5,28,905,2213,-536,3425,14,8,-8,
1316,7,28,2023,11,5,28,915,2235,-548,3432,0,8,0,
1317,7,28,2023,11,5,28,925,2207,-576,3437,5,12,-4,
1318,7,28,2023,11,5,28,935,2226,-530,3435,11,13,-8,
1319,7,28,2023,11,5,28,945,2227,-523,3442,8,11,-7,
1320,7,28,2023,11,5,28,955,2219,-549,3442,6,10,-4,
1321,7,28,2023,11,5,28,965,2245,-547,3450,5,3,-6,
1322,7,28,2023,11,5,28,975,2228,-519,3446,8,0,-6,
1323,7,28,2023,11,5,28,985,2224,-518,3447,4,4,0,
1324,7,28,2023,11,5,28,995,2236,-539,3437,-3,0,5,
1325,7,28,2023,11,5,29,5,2224,-538,3435,-2,2,5,
1326,7,28,2023,11,5,29,15,2237,-542,3445,-3,4,6,
1327,7,28,2023,11,5,29,25,2223,-544,3437,-5,5,4,
1328,7,28,2023,11,5,29,35,2212,-538,3426,0,4,2,
1329,7,28,2023,11,5,29,45,2212,-534,3423,-1,-3,-1,
1330,7,28,2023,11,5,29,55,2222,-525,3420,-3,-2,0,
1331,7,28,2023,11,5,29,65,2224,-529,3416,-4,1,5,
1332,7,28,2023,11,5,29,75,2199,-527,3415,-3,6,5,
1333,7,28,2023,11,5,29,85,2206,-559,3422,3,5,4,
1334,7,28,2023,11,5,29,95,2225,-533,3425,6,4,-1,
1335,7,28,2023,11,5,29,105,2208,-551,3433,5,4,-1,
1336,7,28,2023,11,5,29,115,2210,-552,3437,5,0,-6,
1337,7,28,2023,11,5,29,125,2217,-534,3425,5,-7,-8,
1338,7,28,2023,11,5,29,135,2228,-514,3436,3,-10,-4,
1339,7,28,2023,11,5,29,145,2239,-530,3447,4,-11,-1,
1340,7,28,2023,11,5,29,155,2224,-541,3443,-2,-12,0,
1341,7,28,2023,11,5,29,165,2229,-537,3442,0,-14,2,
1342,7,28,2023,11,5,29,175,2232,-545,3431,-2,-16,1,
1343,7,28,2023,11,5,29,185,2226,-544,3439,1,-17,-2,
1344,7,28,2023,11,5,29,195,2234,-537,3443,-2,-18,-5,
1345,7,28,2023,11,5,29,205,2235,-536,3431,-1,-20,-5,
1346,7,28,2023,11,5,29,215,2213,-547,3429,0,-17,-6,
1347,7,28,2023,11,5,29,225,2207,-537,3423,1,-17,-3,
1348,7,28,2023,11,5,29,235,2193,-547,3434,-1,-25,-3,
1349,7,28,2023,11,5,29,245,2204,-546,3436,-4,-34,-6,
1350,7,28,2023,11,5,29,255,2224,-530,3436,-9,-42,-12,
1351,7,28,2023,11,5,29,265,2230,-532,3434,-7,-43,-10,
1352,7,28,2023,11,5,29,275,2234,-543,3417,-5,-44,-12,
1353,7,28,2023,11,5,29,285,2222,-538,3417,-1,-42,-15,
1354,7,28,2023,11,5,29,295,2242,-535,3421,0,-42,-12,
1355,7,28,2023,11,5,29,305,2239,-544,3426,-3,-41,-12,
1356,7,28,2023,11,5,29,315,2235,-538,3425,-5,-34,-12,
1357,7,28,2023,11,5,29,325,2239,-532,3427,-2,-34,-14,
1358,7,28,2023,11,5,29,335,2228,-538,3433,1,-35,-15,
1359,7,28,2023,11,5,29,345,2243,-533,3427,2,-35,-18,
1360,7,28,2023,11,5,29,355,2250,-531,3423,0,-32,-15,
1361,7,28,2023,11,5,29,375,2249,-532,3425,0,-30,-13,
1362,7,28,2023,11,5,29,385,2251,-536,3416,-2,-28,-7,
1363,7,28,2023,11,5,29,395,2246,-516,3411,-1,-20,-2,
1364,7,28,2023,11,5,29,405,2243,-529,3412,2,-17,0,
1365,7,28,2023,11,5,29,415,2239,-544,3410,4,-12,4,
1366,7,28,2023,11,5,29,425,2223,-533,3411,5,-4,3,
1367,7,28,2023,11,5,29,435,2220,-541,3412,9,0,-1,
1368,7,28,2023,11,5,29,445,2227,-543,3425,10,-4,-4,
1369,7,28,2023,11,5,29,455,2237,-534,3420,13,-6,-8,
1370,7,28,2023,11,5,29,465,2248,-531,3428,11,-6,-10,
1371,7,28,2023,11,5,29,475,2237,-540,3425,10,-7,-9,
1372,7,28,2023,11,5,29,485,2254,-527,3440,7,-14,-15,
1373,7,28,2023,11,5,29,495,2252,-527,3439,4,-15,-14,
1374,7,28,2023,11,5,29,505,2244,-529,3429,4,-15,-9,
1375,7,28,2023,11,5,29,515,2243,-532,3420,4,-17,-10,
1376,7,28,2023,11,5,29,525,2249,-532,3419,3,-17,-8,
1377,7,28,2023,11,5,29,535,2245,-533,3428,1,-15,-7,
1378,7,28,2023,11,5,29,545,2254,-526,3424,1,-15,-8,
1379,7,28,2023,11,5,29,555,2238,-533,3420,3,-12,-4,
1380,7,28,2023,11,5,29,565,2232,-532,3413,1,-11,-4,
1381,7,28,2023,11,5,29,575,2241,-522,3408,3,-13,-5,
1382,7,28,2023,11,5,29,585,2245,-516,3411,1,-16,-10,
1383,7,28,2023,11,5,29,595,2255,-528,3408,-3,-18,-8,
1384,7,28,2023,11,5,29,605,2254,-527,3423,-3,-12,-7,
1385,7,28,2023,11,5,29,615,2246,-518,3424,-3,-5,-9,
1386,7,28,2023,11,5,29,625,2249,-526,3425,-1,-10,-10,
1387,7,28,2023,11,5,29,635,2251,-521,3425,-15,0,-12,
1388,7,28,2023,11,5,29,645,2245,-528,3435,-12,1,-16,
1389,7,28,2023,11,5,29,655,2238,-538,3421,2,-10,-17,
1390,7,28,2023,11,5,29,665,2243,-547,3426,-4,-12,-21,
1391,7,28,2023,11,5,29,675,2250,-543,3419,-7,-5,-27,
1392,7,28,2023,11,5,29,685,2249,-545,3417,-5,-4,-31,
1393,7,28,2023,11,5,29,695,2254,-527,3411,13,-14,-33,
1394,7,28,2023,11,5,29,705,2244,-515,3415,1,-2,-34,
1395,7,28,2023,11,5,29,715,2247,-517,3425,0,-3,-30,
1396,7,28,2023,11,5,29,725,2260,-521,3414,4,-3,-27,
1397,7,28,2023,11,5,29,735,2256,-514,3418,-3,3,-18,
1398,7,28,2023,11,5,29,745,2254,-544,3413,-9,13,-13,
1399,7,28,2023,11,5,29,755,2254,-525,3413,5,8,-13,
1400,7,28,2023,11,5,29,765,2260,-520,3396,5,11,-10,
1401,7,28,2023,11,5,29,775,2263,-505,3408,3,13,-7,
1402,7,28,2023,11,5,29,785,2262,-523,3405,1,17,0,
1403,7,28,2023,11,5,29,795,2249,-506,3406,-1,24,3,
1404,7,28,2023,11,5,29,805,2251,-521,3394,-4,33,7,
1405,7,28,2023,11,5,29,815,2253,-507,3399,-1,41,8,
1406,7,28,2023,11,5,29,825,2248,-512,3405,-1,49,16,
1407,7,28,2023,11,5,29,835,2261,-525,3407,-1,59,18,
1408,7,28,2023,11,5,29,845,2268,-506,3426,-3,66,22,
1409,7,28,2023,11,5,29,855,2256,-522,3429,-4,72,28,
1410,7,28,2023,11,5,29,865,2248,-520,3432,-8,76,33,
1411,7,28,2023,11,5,29,875,2240,-522,3426,-9,80,42,
1412,7,28,2023,11,5,29,885,2239,-542,3422,-9,80,39,
1413,7,28,2023,11,5,29,895,2227,-537,3424,-3,76,39,
1414,7,28,2023,11,5,29,905,2226,-546,3403,-1,79,38,
1415,7,28,2023,11,5,29,915,2200,-539,3411,2,81,38,
1416,7,28,2023,11,5,29,925,2214,-528,3421,1,76,35,
1417,7,28,2023,11,5,29,935,2234,-516,3432,-6,67,39,
1418,7,28,2023,11,5,29,945,2229,-512,3452,-10,59,42,
1419,7,28,2023,11,5,29,955,2234,-531,3450,-18,60,45,
1420,7,28,2023,11,5,29,965,2223,-536,3441,-23,57,48,
1421,7,28,2023,11,5,29,975,2237,-541,3439,-22,51,50,
1422,7,28,2023,11,5,29,985,2238,-535,3439,-17,53,46,
1423,7,28,2023,11,5,29,995,2223,-542,3442,-17,51,41,
1424,7,28,2023,11,5,30,5,2223,-547,3440,-17,51,40,
1425,7,28,2023,11,5,30,15,2210,-544,3436,-15,45,37,
1426,7,28,2023,11,5,30,25,2212,-539,3443,-15,40,38,
1427,7,28,2023,11,5,30,35,2211,-531,3452,-18,37,40,
1428,7,28,2023,11,5,30,45,2206,-545,3442,-21,27,38,
1429,7,28,2023,11,5,30,55,2211,-541,3441,-18,13,30,
1430,7,28,2023,11,5,30,65,2222,-541,3443,-18,7,29,
1431,7,28,2023,11,5,30,75,2215,-545,3441,-18,5,27,
1432,7,28,2023,11,5,30,85,2205,-565,3427,-14,5,24,
1433,7,28,2023,11,5,30,95,2205,-537,3431,-12,2,17,
1434,7,28,2023,11,5,30,105,2189,-549,3421,-8,-1,10,
1435,7,28,2023,11,5,30,115,2218,-549,3414,2,3,2,
1436,7,28,2023,11,5,30,125,2196,-541,3409,4,7,7,
1437,7,28,2023,11,5,30,135,2206,-548,3410,4,8,4,
1438,7,28,2023,11,5,30,145,2215,-536,3414,9,10,2,
1439,7,28,2023,11,5,30,155,2217,-545,3417,11,15,2,
1440,7,28,2023,11,5,30,165,2210,-529,3414,11,20,-1,
1441,7,28,2023,11,5,30,175,2221,-534,3416,14,27,-1,
1442,7,28,2023,11,5,30,185,2218,-543,3418,17,32,0,
1443,7,28,2023,11,5,30,195,2229,-525,3427,15,40,-3,
1444,7,28,2023,11,5,30,205,2217,-543,3431,14,42,-1,
1445,7,28,2023,11,5,30,215,2221,-533,3446,18,46,-2,
1446,7,28,2023,11,5,30,235,2234,-539,3467,6,43,6,
1447,7,28,2023,11,5,30,245,2233,-515,3466,5,41,8,
1448,7,28,2023,11,5,30,255,2224,-532,3461,0,38,10,
1449,7,28,2023,11,5,30,265,2221,-526,3457,-5,34,14,
1450,7,28,2023,11,5,30,275,2219,-544,3447,-11,29,14,
1451,7,28,2023,11,5,30,285,2210,-523,3450,-14,27,19,
1452,7,28,2023,11,5,30,295,2220,-534,3443,-18,26,22,
1453,7,28,2023,11,5,30,305,2215,-522,3440,-21,23,24,
1454,7,28,2023,11,5,30,315,2207,-536,3437,-25,23,28,
1455,7,28,2023,11,5,30,325,2209,-541,3424,-25,19,29,
1456,7,28,2023,11,5,30,335,2189,-541,3432,-25,19,31,
1457,7,28,2023,11,5,30,345,2196,-562,3429,-23,19,28,
1458,7,28,2023,11,5,30,355,2191,-565,3424,-18,16,21,
1459,7,28,2023,11,5,30,365,2189,-564,3432,-13,17,17,
1460,7,28,2023,11,5,30,375,2202,-532,3435,-13,15,16,
1461,7,28,2023,11,5,30,385,2206,-565,3435,-11,12,15,
1462,7,28,2023,11,5,30,395,2203,-552,3440,-8,17,12,
1463,7,28,2023,11,5,30,405,2208,-549,3441,-9,18,15,
1464,7,28,2023,11,5,30,415,2190,-555,3453,-11,16,16,
1465,7,28,2023,11,5,30,425,2204,-560,3450,-8,13,15,
1466,7,28,2023,11,5,30,435,2226,-543,3456,-9,4,13,
1467,7,28,2023,11,5,30,445,2215,-552,3457,-6,-2,13,
1468,7,28,2023,11,5,30,455,2203,-556,3446,-5,-2,8,
1469,7,28,2023,11,5,30,465,2198,-556,3438,-3,-2,1,
1470,7,28,2023,11,5,30,475,2219,-535,3436,-2,-5,1,
1471,7,28,2023,11,5,30,485,2196,-545,3435,-2,-4,5,
1472,7,28,2023,11,5,30,495,2204,-555,3448,-1,-6,6,
1473,7,28,2023,11,5,30,505,2207,-538,3430,-2,-6,4,
1474,7,28,2023,11,5,30,515,2213,-538,3429,-5,-4,1,
1475,7,28,2023,11,5,30,525,2218,-541,3437,-4,0,6,
1476,7,28,2023,11,5,30,535,2210,-542,3435,-4,4,5,
1477,7,28,2023,11,5,30,545,2204,-544,3433,-4,3,8,
1478,7,28,2023,11,5,30,555,2202,-544,3435,-7,6,8,
1479,7,28,2023,11,5,30,565,2204,-541,3432,-6,6,8,
1480,7,28,2023,11,5,30,575,2204,-544,3435,-7,5,6,
1481,7,28,2023,11,5,30,585,2211,-543,3438,-3,8,6,
1482,7,28,2023,11,5,30,595,2209,-547,3440,-2,15,6,
1483,7,28,2023,11,5,30,605,2207,-543,3434,-6,19,8,
1484,7,28,2023,11,5,30,615,2208,-541,3434,-5,21,8,
1485,7,28,2023,11,5,30,625,2203,-544,3440,-4,19,8,
1486,7,28,2023,11,5,30,635,2204,-547,3445,-10,18,4,
1487,7,28,2023,11,5,30,645,2203,-543,3449,-9,18,6,
1488,7,28,2023,11,5,30,655,2211,-549,3449,-8,14,11,
1489,7,28,2023,11,5,30,665,2205,-553,3448,-12,13,11,
1490,7,28,2023,11,5,30,675,2182,-553,3447,-11,6,8,
1491,7,28,2023,11,5,30,685,2195,-557,3441,-14,2,8,
1492,7,28,2023,11,5,30,695,2206,-554,3443,-8,-6,5,
1493,7,28,2023,11,5,30,705,2208,-552,3455,-8,-6,1,
1494,7,28,2023,11,5,30,715,2209,-551,3442,-6,-7,-1,
1495,7,28,2023,11,5,30,725,2201,-553,3443,-7,-11,1,
1496,7,28,2023,11,5,30,735,2199,-554,3440,-7,-17,-1,
1497,7,28,2023,11,5,30,745,2197,-551,3438,-8,-20,0,
1498,7,28,2023,11,5,30,755,2196,-555,3447,-7,-23,-2,
1499,7,28,2023,11,5,30,765,2206,-556,3445,-9,-29,-3,
1500,7,28,2023,11,5,30,775,2219,-549,3447,-6,-32,-5,
1501,7,28,2023,11,5,30,785,2200,-549,3442,-4,-30,-7,
1502,7,28,2023,11,5,30,795,2208,-551,3435,-5,-32,-12,
1503,7,28,2023,11,5,30,805,2194,-540,3429,-1,-33,-10,
1504,7,28,2023,11,5,30,815,2228,-556,3451,-5,-32,-6,
1505,7,28,2023,11,5,30,825,2225,-553,3451,-3,-31,-4,
1506,7,28,2023,11,5,30,835,2210,-550,3432,-6,-28,-5,
1507,7,28,2023,11,5,30,845,2268,-547,3439,-4,-29,-7,
1508,7,28,2023,11,5,30,855,2203,-548,3442,-3,-23,-10,
1509,7,28,2023,11,5,30,865,2174,-560,3430,-4,-29,-11,
1510,7,28,2023,11,5,30,875,2211,-561,3442,-1,-40,-11,
1511,7,28,2023,11,5,30,885,2196,-527,3421,-3,-40,-10,
1512,7,28,2023,11,5,30,895,2207,-557,3429,-6,-49,-11,
1513,7,28,2023,11,5,30,905,2233,-525,3430,-6,-47,-11,
1514,7,28,2023,11,5,30,915,2242,-552,3425,-10,-42,-4,
1515,7,28,2023,11,5,30,925,2232,-530,3418,-15,-36,1,
1516,7,28,2023,11,5,30,935,2222,-546,3408,-4,-29,-5,
1517,7,28,2023,11,5,30,945,2225,-550,3429,2,-27,-9,
1518,7,28,2023,11,5,30,955,2192,-563,3429,5,-25,-13,
1519,7,28,2023,11,5,30,965,2208,-561,3431,2,-31,-17,
1520,7,28,2023,11,5,30,975,2232,-550,3430,-1,-35,-12,
1521,7,28,2023,11,5,30,985,2236,-522,3442,2,-31,-9,
1522,7,28,2023,11,5,30,995,2245,-543,3429,-5,-28,-11,
1523,7,28,2023,11,5,31,5,2258,-539,3430,-1,-21,-7,
1524,7,28,2023,11,5,31,15,2257,-539,3426,-2,-13,-6,
1525,7,28,2023,11,5,31,25,2225,-556,3426,0,-4,-4,
1526,7,28,2023,11,5,31,35,2217,-551,3420,3,-3,-8,
1527,7,28,2023,11,5,31,45,2239,-548,3427,5,-4,-13,
1528,7,28,2023,11,5,31,55,2645,-491,3029,7,-9,-14,
1529,7,28,2023,11,5,31,65,1982,-407,3689,0,-46,-23,
1530,7,28,2023,11,5,31,75,1933,-821,3480,-20,-25,14,
1531,7,28,2023,11,5,31,95,1702,-378,3927,3,-14,-19,
1532,7,28,2023,11,5,31,105,2238,-892,3080,-27,-11,30,
1533,7,28,2023,11,5,31,115,2736,-198,3345,29,-84,-61,
1534,7,28,2023,11,5,31,125,1885,-696,3693,-27,22,33,
1535,7,28,2023,11,5,31,135,2739,-563,3078,13,-47,-12,
1536,7,28,2023,11,5,31,145,1739,-499,3842,-15,-17,-8,
1537,7,28,2023,11,5,31,155,2943,-614,2952,-4,-82,-5,
1538,7,28,2023,11,5,31,165,1448,-463,3869,-30,-77,-10,
1539,7,28,2023,11,5,31,175,2860,-677,3167,2,-168,-23,
1540,7,28,2023,11,5,31,185,2025,-385,3546,-1,-100,-27,
1541,7,28,2023,11,5,31,195,2439,-632,3340,-6,-130,-12,
1542,7,28,2023,11,5,31,205,2221,-424,3462,2,-101,-26,
1543,7,28,2023,11,5,31,215,2269,-582,3387,-9,-107,-15,
1544,7,28,2023,11,5,31,225,2367,-515,3430,-13,-99,-12,
1545,7,28,2023,11,5,31,235,2440,-502,3236,-7,-74,-13,
1546,7,28,2023,11,5,31,245,2443,-488,3350,-12,-80,-6,
1547,7,28,2023,11,5,31,255,2513,-504,3223,-14,-63,-3,
1548,7,28,2023,11,5,31,265,2384,-507,3311,-5,-40,-3,
1549,7,28,2023,11,5,31,275,2458,-517,3263,-1,-31,-4,
1550,7,28,2023,11,5,31,285,2346,-523,3306,9,-2,-3,
1551,7,28,2023,11,5,31,295,2377,-542,3296,18,12,-9,
1552,7,28,2023,11,5,31,305,2399,-537,3329,23,37,-14,
1553,7,28,2023,11,5,31,315,2335,-538,3331,25,42,-13,
1554,7,28,2023,11,5,31,325,2391,-526,3324,24,21,-9,
1555,7,28,2023,11,5,31,335,2419,-521,3307,25,-1,-11,
1556,7,28,2023,11,5,31,345,2346,-547,3372,21,-26,-9,
1557,7,28,2023,11,5,31,355,2362,-586,3360,22,-45,-14,
1558,7,28,2023,11,5,31,365,2518,-514,3321,30,-62,-33,
1559,7,28,2023,11,5,31,375,2442,-447,3342,24,-71,-32,
1560,7,28,2023,11,5,31,385,2322,-484,3365,5,-92,-16,
1561,7,28,2023,11,5,31,395,2330,-505,3380,-2,-116,-8,
1562,7,28,2023,11,5,31,405,2505,-398,3307,-13,-133,-5,
1563,7,28,2023,11,5,31,415,2394,-445,3338,-21,-144,7,
1564,7,28,2023,11,5,31,425,2325,-525,3329,-22,-157,14,
1565,7,28,2023,11,5,31,435,2585,-450,3212,-15,-176,-5,
1566,7,28,2023,11,5,31,445,2482,-423,3312,-17,-179,-7,
1567,7,28,2023,11,5,31,455,2374,-542,3273,-26,-189,7,
1568,7,28,2023,11,5,31,465,2517,-516,3266,-11,-211,-10,
1569,7,28,2023,11,5,31,475,2530,-450,3268,-22,-203,-15,
1570,7,28,2023,11,5,31,485,2453,-512,3241,-23,-208,-6,
1571,7,28,2023,11,5,31,495,2436,-526,3270,-31,-201,-10,
1572,7,28,2023,11,5,31,505,2446,-525,3228,-20,-198,-24,
1573,7,28,2023,11,5,31,515,2464,-490,3257,-31,-199,-30,
1574,7,28,2023,11,5,31,525,2471,-514,3255,-19,-194,-42,
1575,7,28,2023,11,5,31,535,2558,-452,3227,-29,-182,-45,
1576,7,28,2023,11,5,31,545,2603,-556,3134,-65,-180,-63,
1577,7,28,2023,11,5,31,555,2434,-389,3271,-25,-197,-65,
1578,7,28,2023,11,5,31,565,2434,-483,3280,-48,-231,-41,
1579,7,28,2023,11,5,31,575,2440,-511,3303,-54,-265,-41,
1580,7,28,2023,11,5,31,585,2511,-456,3289,-54,-300,-49,
1581,7,28,2023,11,5,31,595,2587,-437,3250,-52,-342,-47,
1582,7,28,2023,11,5,31,605,2485,-451,3337,-52,-387,-39,
1583,7,28,2023,11,5,31,615,2423,-518,3332,-53,-409,-29,
1584,7,28,2023,11,5,31,625,2502,-492,3240,-56,-429,-40,
1585,7,28,2023,11,5,31,635,2599,-429,3208,-70,-465,-64,
1586,7,28,2023,11,5,31,645,2572,-414,3194,-90,-510,-70,
1587,7,28,2023,11,5,31,655,2470,-424,3228,-97,-553,-75,
1588,7,28,2023,11,5,31,665,2488,-451,3252,-112,-585,-73,
1589,7,28,2023,11,5,31,675,2429,-378,3313,-131,-614,-58,
1590,7,28,2023,11,5,31,685,2340,-380,3307,-145,-627,-32,
1591,7,28,2023,11,5,31,695,2725,-365,3055,-160,-646,-19,
1592,7,28,2023,11,5,31,705,2893,-268,3079,-172,-690,-10,
1593,7,28,2023,11,5,31,715,2496,-448,3318,-193,-678,51,
1594,7,28,2023,11,5,31,725,2577,-557,3182,-182,-644,83,
1595,7,28,2023,11,5,31,735,2942,-383,3072,-182,-627,69,
1596,7,28,2023,11,5,31,745,2919,-343,3087,-186,-589,106,
1597,7,28,2023,11,5,31,755,2560,-590,3183,-167,-541,177,
1598,7,28,2023,11,5,31,765,2696,-682,3015,-151,-493,198,
1599,7,28,2023,11,5,31,775,2877,-445,2780,-183,-419,188,
1600,7,28,2023,11,5,31,785,2884,-291,2715,-191,-422,243,
1601,7,28,2023,11,5,31,795,2780,-413,2780,-165,-391,315,
1602,7,28,2023,11,5,31,805,2615,-571,2834,-138,-340,337,
1603,7,28,2023,11,5,31,815,2658,-791,2989,-136,-312,317,
1604,7,28,2023,11,5,31,825,2712,-852,3049,-107,-240,244,
1605,7,28,2023,11,5,31,835,2596,-860,3029,-76,-188,142,
1606,7,28,2023,11,5,31,845,3143,-792,2913,-45,-293,34,
1607,7,28,2023,11,5,31,855,2716,-820,3378,-74,-345,-16,
1608,7,28,2023,11,5,31,865,2887,-826,3152,-21,-436,-91,
1609,7,28,2023,11,5,31,875,3041,-644,3157,-24,-585,-191,
1610,7,28,2023,11,5,31,885,2693,-558,3414,-24,-704,-225,
1611,7,28,2023,11,5,31,895,2841,-558,3068,-9,-835,-232,
1612,7,28,2023,11,5,31,905,2864,-416,3284,-6,-1065,-287,
1613,7,28,2023,11,5,31,915,2834,-595,3307,-36,-1199,-263,
1614,7,28,2023,11,5,31,925,2691,-568,3220,2,-1315,-274,
1615,7,28,2023,11,5,31,935,3315,-573,2943,19,-1520,-329,
1616,7,28,2023,11,5,31,955,3004,-665,2909,41,-1744,-392,
1617,7,28,2023,11,5,31,965,3013,-570,3055,61,-1883,-454,
1618,7,28,2023,11,5,31,975,2886,-582,2911,84,-1909,-445,
1619,7,28,2023,11,5,31,985,3061,-456,2780,137,-2040,-478,
1620,7,28,2023,11,5,31,995,2878,-556,2908,128,-2134,-470,
1621,7,28,2023,11,5,32,5,3031,-567,2676,167,-2193,-468,
1622,7,28,2023,11,5,32,15,2838,-543,2836,161,-2272,-484,
1623,7,28,2023,11,5,32,25,3414,-630,2619,201,-2371,-544,
1624,7,28,2023,11,5,32,35,3255,-709,2757,246,-2446,-619,
1625,7,28,2023,11,5,32,45,2548,-877,2923,295,-2505,-729,
1626,7,28,2023,11,5,32,55,2583,-1000,2926,399,-2672,-923,
1627,7,28,2023,11,5,32,65,2754,-920,2429,494,-2931,-1131,
1628,7,28,2023,11,5,32,75,2618,-673,2762,553,-3484,-1372,
1629,7,28,2023,11,5,32,85,3196,-951,3837,488,-4011,-1506,
1630,7,28,2023,11,5,32,95,3793,-876,3529,392,-4097,-1623,
1631,7,28,2023,11,5,32,105,3390,-491,3987,397,-4540,-1905,
1632,7,28,2023,11,5,32,115,3336,-675,3463,349,-5184,-2208,
1633,7,28,2023,11,5,32,125,2518,-758,4271,473,-6301,-2433,
1634,7,28,2023,11,5,32,135,1567,-927,4776,229,-7247,-2671,
1635,7,28,2023,11,5,32,145,3958,-622,3404,228,-8375,-3054,
1636,7,28,2023,11,5,32,155,5011,-168,4145,283,-9495,-3199,
1637,7,28,2023,11,5,32,165,4973,-325,4620,32,-10155,-3122,
1638,7,28,2023,11,5,32,175,4136,-720,4860,-606,-10517,-2894,
1639,7,28,2023,11,5,32,185,5858,-1948,4557,-1372,-10740,-2776,
1640,7,28,2023,11,5,32,195,6714,-2233,3795,-1130,-10431,-3288,
1641,7,28,2023,11,5,32,205,7258,-1903,5444,-1378,-9718,-3574,
1642,7,28,2023,11,5,32,215,4934,-2859,3778,-2163,-8465,-3803,
1643,7,28,2023,11,5,32,225,4732,-2536,4371,-2260,-7829,-4484,
1644,7,28,2023,11,5,32,235,3582,-1669,3967,-2818,-6944,-4672,
1645,7,28,2023,11,5,32,245,1392,-1134,3939,-3329,-6564,-4720,
1646,7,28,2023,11,5,32,255,7611,-3504,6064,-3970,-4801,-3387,
1647,7,28,2023,11,5,32,265,5964,-5206,5583,-4095,-782,-1160,
1648,7,28,2023,11,5,32,275,-1,-4634,3424,-2750,1894,11,
1649,7,28,2023,11,5,32,285,-633,-2769,2874,-990,2232,601,
1650,7,28,2023,11,5,32,295,-191,-881,2941,-416,1875,1054,
1651,7,28,2023,11,5,32,305,319,-136,3178,-1213,1768,1816,
1652,7,28,2023,11,5,32,315,708,-636,3318,-2350,2125,2715,
1653,7,28,2023,11,5,32,325,776,-1608,3195,-2799,2887,3327,
1654,7,28,2023,11,5,32,335,841,-1820,3232,-2170,3868,3579,
1655,7,28,2023,11,5,32,345,1107,-1305,3441,-1081,4917,3632,
1656,7,28,2023,11,5,32,355,1071,-243,3682,-321,6031,3619,
1657,7,28,2023,11,5,32,365,794,900,3834,-437,6976,3601,
1658,7,28,2023,11,5,32,375,788,945,3773,-1462,7653,3574,
1659,7,28,2023,11,5,32,385,926,27,3511,-2356,8212,3487,
1660,7,28,2023,11,5,32,395,1098,-645,3431,-2306,8708,3299,
1661,7,28,2023,11,5,32,405,1497,-592,3662,-1708,9083,3131,
1662,7,28,2023,11,5,32,415,1979,-311,3928,-1304,9399,3153,
1663,7,28,2023,11,5,32,425,2326,-258,4104,-1341,9688,3390,
1664,7,28,2023,11,5,32,435,2623,-498,4175,-1549,9819,3752,
1665,7,28,2023,11,5,32,445,3632,-821,4241,-1599,9738,4115,
1666,7,28,2023,11,5,32,455,5573,-724,4320,-1389,9587,4280,
1667,7,28,2023,11,5,32,465,6431,-630,4435,-923,9908,3951,
1668,7,28,2023,11,5,32,475,7104,-152,4129,-460,10127,3552,
1669,7,28,2023,11,5,32,485,7964,249,3683,-209,9890,3550,
1670,7,28,2023,11,5,32,495,8812,708,2667,-54,9292,4016,
1671,7,28,2023,11,5,32,505,9848,833,1586,200,8385,4666,
1672,7,28,2023,11,5,32,515,10346,1311,426,667,7300,5268,
1673,7,28,2023,11,5,32,525,10860,1297,-698,1170,6059,5594,
1674,7,28,2023,11,5,32,535,11170,843,-2175,1883,4895,5418,
1675,7,28,2023,11,5,32,545,11228,3342,-4795,3874,2286,3147,
1676,7,28,2023,11,5,32,555,11643,4038,-5412,3448,808,2089,
1677,7,28,2023,11,5,32,565,13462,3331,-6515,2564,-765,1366,
1678,7,28,2023,11,5,32,575,14174,4503,-8584,2991,-2446,21,
1679,7,28,2023,11,5,32,585,7849,4151,727,2324,-4014,-1923,
1680,7,28,2023,11,5,32,595,9361,-5181,11079,240,-2270,-2154,
1681,7,28,2023,11,5,32,605,-4911,-1932,4420,1153,1864,-970,
1682,7,28,2023,11,5,32,615,2852,-533,5121,1679,-154,-1831,
1683,7,28,2023,11,5,32,625,6311,1979,4452,1460,-21,-1468,
1684,7,28,2023,11,5,32,635,3267,327,3934,1080,461,-1011,
1685,7,28,2023,11,5,32,645,2283,153,3737,663,-84,-488,
1686,7,28,2023,11,5,32,655,2662,11,3501,380,-286,-384,
1687,7,28,2023,11,5,32,665,3245,-335,3378,275,-196,-340,
1688,7,28,2023,11,5,32,675,1182,-473,4024,29,-106,-86,
1689,7,28,2023,11,5,32,685,2787,-119,3177,-70,-217,-22,
1690,7,28,2023,11,5,32,695,3457,-111,3182,-173,-289,72,
1691,7,28,2023,11,5,32,705,1885,-576,3937,-323,-269,177,
1692,7,28,2023,11,5,32,715,1691,-1335,3773,-379,-254,233,
1693,7,28,2023,11,5,32,725,3087,-457,2893,-254,-245,100,
1694,7,28,2023,11,5,32,735,2055,-628,3526,-230,-247,71,
1695,7,28,2023,11,5,32,745,1951,-1120,3309,-216,-160,100,
1696,7,28,2023,11,5,32,755,2240,-906,3581,-47,-35,-33,
1697,7,28,2023,11,5,32,765,2481,-760,3339,27,39,-48,
1698,7,28,2023,11,5,32,775,2182,-730,3548,42,66,-56,
1699,7,28,2023,11,5,32,785,2131,-797,3592,81,95,-52,
1700,7,28,2023,11,5,32,795,2438,-628,3510,99,103,-83,
1701,7,28,2023,11,5,32,815,2432,-576,3462,127,-23,-103,
1702,7,28,2023,11,5,32,825,2303,-621,3501,99,-59,-106,
1703,7,28,2023,11,5,32,835,2437,-466,3434,97,-116,-120,
1704,7,28,2023,11,5,32,845,1457,-682,3830,38,-131,-101,
1705,7,28,2023,11,5,32,855,2671,-663,3039,45,-189,-96,
1706,7,28,2023,11,5,32,865,2413,-280,3606,45,-249,-143,
1707,7,28,2023,11,5,32,875,2406,-533,3212,-20,-251,-80,
1708,7,28,2023,11,5,32,885,1560,-753,3837,-25,-236,-74,
1709,7,28,2023,11,5,32,895,2667,-676,2924,-18,-210,-57,
1710,7,28,2023,11,5,32,905,2880,-187,3185,15,-263,-124,
1711,7,28,2023,11,5,32,915,2183,-493,3256,-58,-226,-62,
1712,7,28,2023,11,5,32,925,1790,-781,3544,-46,-195,-43,
1713,7,28,2023,11,5,32,935,2763,-552,2932,-17,-169,-57,
1714,7,28,2023,11,5,32,945,2305,-402,3496,3,-223,-108,
1715,7,28,2023,11,5,32,955,2656,-613,3013,-8,-183,-56,
1716,7,28,2023,11,5,32,965,2337,-554,3413,23,-162,-77,
1717,7,28,2023,11,5,32,975,2619,-478,2995,6,-126,-45,
1718,7,28,2023,11,5,32,985,2110,-411,3421,19,-111,-62,
1719,7,28,2023,11,5,32,995,2448,-575,3157,-1,-106,-8,
1720,7,28,2023,11,5,33,5,2824,-384,3188,19,-106,-16,
1721,7,28,2023,11,5,33,15,2056,-575,3533,10,-64,20,
1722,7,28,2023,11,5,33,25,2604,-630,3284,12,-142,-12,
1723,7,28,2023,11,5,33,35,2583,-596,3334,-24,-161,-25,
1724,7,28,2023,11,5,33,45,2431,-427,3423,-8,-252,-68,
1725,7,28,2023,11,5,33,55,2482,-461,3433,-43,-328,-58,
1726,7,28,2023,11,5,33,65,2474,-330,3531,-46,-384,-70,
1727,7,28,2023,11,5,33,75,2880,-335,3297,-84,-462,-37,
1728,7,28,2023,11,5,33,85,2655,-356,3451,-112,-560,-12,
1729,7,28,2023,11,5,33,95,2185,-612,3445,-120,-610,17,
1730,7,28,2023,11,5,33,105,1714,-890,3128,-42,-778,-85,
1731,7,28,2023,11,5,33,115,1709,-1026,2947,42,-1261,-265,
1732,7,28,2023,11,5,33,125,2459,-1156,3330,71,-1936,-506,
1733,7,28,2023,11,5,33,135,2385,-1193,4511,78,-2333,-661,
1734,7,28,2023,11,5,33,145,3457,-1131,4623,45,-2577,-929,
1735,7,28,2023,11,5,33,155,3195,-699,4335,-22,-2876,-1122,
1736,7,28,2023,11,5,33,165,1370,-1221,5399,-98,-3747,-1266,
1737,7,28,2023,11,5,33,175,1567,-1053,5082,-139,-4627,-1407,
1738,7,28,2023,11,5,33,185,3060,-939,4519,-164,-5909,-1748,
1739,7,28,2023,11,5,33,195,1921,-1180,5423,-63,-7247,-2073,
1740,7,28,2023,11,5,33,205,649,-1107,5995,171,-8497,-2416,
1741,7,28,2023,11,5,33,215,2433,-792,4425,623,-9860,-2852,
1742,7,28,2023,11,5,33,225,2923,41,5651,1249,-11381,-3191,
1743,7,28,2023,11,5,33,235,2910,-1030,5489,960,-12228,-3178,
1744,7,28,2023,11,5,33,245,4149,-2361,4569,1025,-12486,-3307,
1745,7,28,2023,11,5,33,255,5594,-1077,4646,1316,-12512,-3560,
1746,7,28,2023,11,5,33,265,7451,-1791,4731,9,-11619,-3282,
1747,7,28,2023,11,5,33,275,6378,-1947,3993,-762,-9899,-3289,
1748,7,28,2023,11,5,33,285,4919,-994,4165,-1385,-8108,-3064,
1749,7,28,2023,11,5,33,295,708,-320,4057,-1987,-6530,-2956,
1750,7,28,2023,11,5,33,305,3211,-2995,6401,-2395,-4464,-1963,
1751,7,28,2023,11,5,33,315,1994,-4659,5671,-1969,-1167,-818,
1752,7,28,2023,11,5,33,325,-2864,-3177,3768,-558,586,-505,
1753,7,28,2023,11,5,33,335,-1893,-939,3820,167,568,-471,
1754,7,28,2023,11,5,33,345,-553,-626,4114,-918,649,-25,
1755,7,28,2023,11,5,33,355,-220,-1962,3951,-2160,1500,599,
1756,7,28,2023,11,5,33,365,-549,-2608,3716,-2135,2585,992,
1757,7,28,2023,11,5,33,375,-463,-1970,3747,-1399,3455,1299,
1758,7,28,2023,11,5,33,385,36,-1151,3883,-1070,4200,1772,
1759,7,28,2023,11,5,33,395,593,-1030,3888,-1310,5027,2368,
1760,7,28,2023,11,5,33,405,870,-1172,3790,-1509,5962,2885,
1761,7,28,2023,11,5,33,415,842,-926,3706,-1386,6811,3232,
1762,7,28,2023,11,5,33,425,822,-467,3651,-1276,7439,3447,
1763,7,28,2023,11,5,33,435,994,-313,3631,-1399,7842,3567,
1764,7,28,2023,11,5,33,445,1455,-526,3698,-1527,8073,3626,
1765,7,28,2023,11,5,33,455,2080,-806,3948,-1413,8225,3657,
1766,7,28,2023,11,5,33,465,2942,-932,4331,-1095,8445,3727,
1767,7,28,2023,11,5,33,475,3620,-972,4567,-789,8772,3914,
1768,7,28,2023,11,5,33,485,4213,-1274,4695,-565,9080,4170,
1769,7,28,2023,11,5,33,495,4835,-1971,4637,-277,9257,4400,
1770,7,28,2023,11,5,33,505,5752,-2505,4313,250,9286,4657,
1771,7,28,2023,11,5,33,515,6682,-2428,3762,878,9153,5092,
1772,7,28,2023,11,5,33,525,7750,-1434,2985,1217,8680,5680,
1773,7,28,2023,11,5,33,535,9043,-663,1987,1048,7877,6250,
1774,7,28,2023,11,5,33,545,10222,-165,828,930,7032,6468,
1775,7,28,2023,11,5,33,555,10680,514,-383,1255,6265,6134,
1776,7,28,2023,11,5,33,565,10637,569,-1836,1818,5421,5265,
1777,7,28,2023,11,5,33,575,10374,1269,-3621,2559,4224,3745,
1778,7,28,2023,11,5,33,585,11171,2151,-4518,2640,2788,2112,
1779,7,28,2023,11,5,33,595,11482,2341,-5430,1756,1382,868,
1780,7,28,2023,11,5,33,605,11227,2418,-6154,937,-40,-15,
1781,7,28,2023,11,5,33,615,11511,2116,-6937,813,-1728,-702,
1782,7,28,2023,11,5,33,625,3576,2141,-3203,1864,-3936,-1908,
1783,7,28,2023,11,5,33,635,4169,-87,7224,1091,-5506,-3036,
1784,7,28,2023,11,5,33,645,5942,-5368,8915,656,-4198,-2619,
1785,7,28,2023,11,5,33,655,4368,-2159,3542,1759,-1704,-2208,
1786,7,28,2023,11,5,33,675,6229,596,5682,2249,-650,-1830,
1787,7,28,2023,11,5,33,685,3293,1710,4417,1896,31,-1369,
1788,7,28,2023,11,5,33,695,2182,620,5160,1047,-315,-721,
1789,7,28,2023,11,5,33,705,4161,-443,3810,602,-392,-451,
1790,7,28,2023,11,5,33,715,2441,2,4672,434,-303,-264,
1791,7,28,2023,11,5,33,725,2333,-579,2925,143,-362,-69,
1792,7,28,2023,11,5,33,735,3468,-50,3477,27,-454,-54,
1793,7,28,2023,11,5,33,745,1026,-856,3779,-159,-271,125,
1794,7,28,2023,11,5,33,755,2916,-589,3398,-133,-305,80,
1795,7,28,2023,11,5,33,765,2514,-433,3164,-165,-166,109,
1796,7,28,2023,11,5,33,775,1951,-464,3185,-230,-155,167,
1797,7,28,2023,11,5,33,785,1928,-822,3472,-185,-111,186,
1798,7,28,2023,11,5,33,795,2447,-933,3078,-117,-1,161,
1799,7,28,2023,11,5,33,805,1922,-842,3619,-43,60,79,
1800,7,28,2023,11,5,33,815,2381,-766,3388,19,30,20,
1801,7,28,2023,11,5,33,825,2228,-705,3525,22,-1,-18,
1802,7,28,2023,11,5,33,835,2243,-874,3506,44,-39,-12,
1803,7,28,2023,11,5,33,845,2672,-651,3467,86,-70,-76,
1804,7,28,2023,11,5,33,855,2181,-523,3701,91,-132,-76,
1805,7,28,2023,11,5,33,865,2094,-714,3557,50,-180,-34,
1806,7,28,2023,11,5,33,875,2362,-621,3433,49,-231,-64,
1807,7,28,2023,11,5,33,885,2018,-517,3721,9,-333,-90,
1808,7,28,2023,11,5,33,895,2418,-598,3283,-58,-363,-62,
1809,7,28,2023,11,5,33,905,2849,-401,3247,-42,-443,-79,
1810,7,28,2023,11,5,33,915,964,-540,4334,-103,-484,-67,
1811,7,28,2023,11,5,33,925,2637,-918,2851,-153,-436,17,
1812,7,28,2023,11,5,33,935,3574,-110,3058,-113,-608,-136,
1813,7,28,2023,11,5,33,945,539,-834,4182,-243,-576,-72,
1814,7,28,2023,11,5,33,955,3534,-754,2499,-173,-663,-85,
1815,7,28,2023,11,5,33,965,1937,-367,3720,-171,-657,-182,
1816,7,28,2023,11,5,33,975,2088,-769,3246,-213,-702,-83,
1817,7,28,2023,11,5,33,985,2781,-581,3103,-138,-708,-134,
1818,7,28,2023,11,5,33,995,2478,-533,3201,-144,-726,-134,
1819,7,28,2023,11,5,34,5,2481,-491,3233,-144,-755,-118,
1820,7,28,2023,11,5,34,15,2932,-618,2900,-115,-756,-109,
1821,7,28,2023,11,5,34,25,2872,-409,2993,-86,-792,-106,
1822,7,28,2023,11,5,34,35,1416,-827,3736,-101,-748,-84,
1823,7,28,2023,11,5,34,45,3878,-750,2314,-69,-773,-131,
1824,7,28,2023,11,5,34,55,2046,-393,3701,-41,-737,-180,
1825,7,28,2023,11,5,34,65,2032,-856,3124,-75,-652,-118,
1826,7,28,2023,11,5,34,75,3706,-469,2830,-26,-850,-272,
1827,7,28,2023,11,5,34,85,1270,-717,3949,-73,-762,-197,
1828,7,28,2023,11,5,34,95,3151,-714,2768,-18,-861,-252,
1829,7,28,2023,11,5,34,105,2859,-280,3221,-48,-920,-286,
1830,7,28,2023,11,5,34,115,2386,-474,3506,-75,-1034,-225,
1831,7,28,2023,11,5,34,125,2403,-691,3368,-90,-1155,-229,
1832,7,28,2023,11,5,34,135,3013,-566,3154,-87,-1335,-269,
1833,7,28,2023,11,5,34,145,2200,-445,3559,-118,-1471,-253,
1834,7,28,2023,11,5,34,155,2933,-507,3188,-97,-1757,-264,
1835,7,28,2023,11,5,34,165,3001,-451,3361,-93,-2073,-278,
1836,7,28,2023,11,5,34,175,2256,-732,3108,-98,-2449,-347,
1837,7,28,2023,11,5,34,185,2530,-943,3061,22,-3146,-570,
1838,7,28,2023,11,5,34,195,2652,-1189,4076,44,-3784,-688,
1839,7,28,2023,11,5,34,205,3975,-1424,4055,95,-4041,-927,
1840,7,28,2023,11,5,34,215,2793,-1299,4353,117,-4430,-1219,
1841,7,28,2023,11,5,34,225,1123,-1441,4260,37,-5322,-1497,
1842,7,28,2023,11,5,34,235,3243,-1879,4065,221,-6807,-2207,
1843,7,28,2023,11,5,34,245,1503,-1585,6758,511,-7803,-2696,
1844,7,28,2023,11,5,34,255,4956,-1652,3515,699,-8625,-3372,
1845,7,28,2023,11,5,34,265,657,-1569,6303,1086,-9891,-3884,
1846,7,28,2023,11,5,34,275,2707,-1477,3487,1319,-11069,-4447,
1847,7,28,2023,11,5,34,285,4619,-822,6491,1617,-12766,-4809,
1848,7,28,2023,11,5,34,295,3846,-106,4724,811,-12994,-4561,
1849,7,28,2023,11,5,34,305,6944,383,5842,63,-13822,-4167,
1850,7,28,2023,11,5,34,315,6634,-2036,4714,-1292,-13063,-3603,
1851,7,28,2023,11,5,34,325,6927,-1623,5461,-1398,-12235,-3707,
1852,7,28,2023,11,5,34,335,6050,-1746,5057,-2050,-10896,-3596,
1853,7,28,2023,11,5,34,345,4463,-1563,5320,-2830,-9501,-3691,
1854,7,28,2023,11,5,34,355,1718,-864,4501,-3935,-7919,-3613,
1855,7,28,2023,11,5,34,365,4372,-2486,6564,-4601,-6002,-3323,
1856,7,28,2023,11,5,34,375,8374,-5372,7482,-4470,-1345,-1657,
1857,7,28,2023,11,5,34,385,-2258,-4675,4531,-2494,2590,-810,
1858,7,28,2023,11,5,34,395,-3131,-2027,3388,-440,2177,-719,
1859,7,28,2023,11,5,34,405,-778,67,3729,-236,924,-244,
1860,7,28,2023,11,5,34,415,513,-492,3768,-1724,779,982,
1861,7,28,2023,11,5,34,425,687,-1815,3712,-2616,1679,2175,
1862,7,28,2023,11,5,34,435,306,-2145,3624,-2076,2773,2912,
1863,7,28,2023,11,5,34,445,531,-1394,3801,-872,3702,3341,
1864,7,28,2023,11,5,34,455,1197,-373,4072,-65,4681,3658,
1865,7,28,2023,11,5,34,465,1623,293,4214,34,5902,3884,
1866,7,28,2023,11,5,34,475,1663,648,4192,-319,7247,3879,
1867,7,28,2023,11,5,34,485,1405,969,4035,-851,8488,3599,
1868,7,28,2023,11,5,34,495,1257,1037,3906,-1453,9397,3111,
1869,7,28,2023,11,5,34,505,1688,672,3943,-1993,10056,2520,
1870,7,28,2023,11,5,34,515,2067,486,3831,-2313,10746,1992,
1871,7,28,2023,11,5,34,535,1719,753,3165,-2966,11005,1494,
1872,7,28,2023,11,5,34,545,3231,163,3323,-3194,10157,1519,
1873,7,28,2023,11,5,34,555,4228,-874,3943,-3069,9677,1847,
1874,7,28,2023,11,5,34,565,4741,-996,4434,-2669,9511,2172,
1875,7,28,2023,11,5,34,575,5642,-1061,4714,-2444,9259,2627,
1876,7,28,2023,11,5,34,585,7007,-2142,4793,-2279,9031,3210,
1877,7,28,2023,11,5,34,595,8592,-3000,4670,-1644,9208,3731,
1878,7,28,2023,11,5,34,605,9600,-3181,3910,-743,9766,4415,
1879,7,28,2023,11,5,34,615,9564,-2628,2395,16,10145,5480,
1880,7,28,2023,11,5,34,625,9334,-951,1131,511,9601,6881,
1881,7,28,2023,11,5,34,635,9981,143,358,614,8196,8251,
1882,7,28,2023,11,5,34,645,10766,612,-190,1011,6805,9030,
1883,7,28,2023,11,5,34,655,11355,1231,-1060,2119,5849,8927,
1884,7,28,2023,11,5,34,665,11395,2281,-2815,3390,5182,7844,
1885,7,28,2023,11,5,34,675,10943,3436,-4853,3929,4039,5795,
1886,7,28,2023,11,5,34,685,11932,3427,-6099,3322,2435,3671,
1887,7,28,2023,11,5,34,695,12617,3382,-7020,2285,809,1889,
1888,7,28,2023,11,5,34,705,13040,3551,-7585,1411,-925,413,
1889,7,28,2023,11,5,34,715,9411,3007,-6533,1420,-2934,-938,
1890,7,28,2023,11,5,34,725,2019,1175,3073,1724,-5361,-2231,
1891,7,28,2023,11,5,34,735,3474,-3441,11057,749,-5651,-2214,
1892,7,28,2023,11,5,34,745,2984,-3467,5453,890,-3372,-1906,
1893,7,28,2023,11,5,34,755,2193,-44,1775,1432,-3338,-2037,
1894,7,28,2023,11,5,34,765,7567,83,5526,1674,-4797,-1819,
1895,7,28,2023,11,5,34,775,8743,1012,6945,2012,-2900,-1992,
1896,7,28,2023,11,5,34,785,3127,462,3122,1597,-628,-1720,
1897,7,28,2023,11,5,34,795,3888,131,5271,1244,-931,-889,
1898,7,28,2023,11,5,34,805,3093,-160,3688,882,-208,-682,
1899,7,28,2023,11,5,34,815,3203,-1306,4753,639,-109,-591,
1900,7,28,2023,11,5,34,825,2693,-442,2197,479,-131,-288,
1901,7,28,2023,11,5,34,835,2587,-35,4615,379,-220,-354,
1902,7,28,2023,11,5,34,845,2666,-552,2818,132,1,-124,
1903,7,28,2023,11,5,34,855,1362,-506,4354,70,-14,-133,
1904,7,28,2023,11,5,34,865,2280,-507,2770,-47,-20,-11,
1905,7,28,2023,11,5,34,875,2338,-83,3447,-100,-119,0,
1906,7,28,2023,11,5,34,885,2246,-396,3398,-129,-24,74,
1907,7,28,2023,11,5,34,895,2732,-604,3358,-156,-66,89,
1908,7,28,2023,11,5,34,905,1125,-820,4102,-154,-44,81,
1909,7,28,2023,11,5,34,915,3491,-147,3272,-134,-221,50,
1910,7,28,2023,11,5,34,925,852,-1292,3988,-259,-172,143,
1911,7,28,2023,11,5,34,935,3491,-360,3537,-98,-365,-9,
1912,7,28,2023,11,5,34,945,1008,-1224,3876,-214,-271,45,
1913,7,28,2023,11,5,34,955,2333,-500,3710,-87,-472,-78,
1914,7,28,2023,11,5,34,965,2552,-689,3508,-137,-519,-66,
1915,7,28,2023,11,5,34,975,1508,-704,3854,-96,-548,-71,
1916,7,28,2023,11,5,34,985,2522,-730,3461,-91,-659,-151,
1917,7,28,2023,11,5,34,995,2181,-727,3534,-117,-671,-177,
1918,7,28,2023,11,5,35,5,2557,-346,3249,-48,-793,-230,
1919,7,28,2023,11,5,35,15,2206,-624,3479,-131,-836,-225,
1920,7,28,2023,11,5,35,25,2926,-172,3197,-89,-984,-284,
1921,7,28,2023,11,5,35,35,1772,-526,3662,-210,-1091,-234,
1922,7,28,2023,11,5,35,45,2840,-396,3195,-218,-1295,-241,
1923,7,28,2023,11,5,35,55,1746,-620,3758,-265,-1410,-235,
1924,7,28,2023,11,5,35,65,3672,-484,2624,-190,-1558,-269,
1925,7,28,2023,11,5,35,75,334,-580,4679,-241,-1585,-251,
1926,7,28,2023,11,5,35,85,4934,-693,1547,-291,-1651,-254,
1927,7,28,2023,11,5,35,95,684,-145,4614,-91,-1709,-384,
1928,7,28,2023,11,5,35,105,4037,-1039,2054,-219,-1807,-242,
1929,7,28,2023,11,5,35,115,1356,-221,3844,-62,-1727,-344,
1930,7,28,2023,11,5,35,125,3309,-1077,2644,-185,-1880,-313,
1931,7,28,2023,11,5,35,135,2851,-330,3144,-91,-1833,-432,
1932,7,28,2023,11,5,35,145,2903,-869,2800,-211,-1940,-498,
1933,7,28,2023,11,5,35,155,3360,-440,2847,-138,-2097,-630,
1934,7,28,2023,11,5,35,165,2155,-572,3117,-202,-2068,-595,
1935,7,28,2023,11,5,35,175,3581,-237,2913,-84,-2355,-733,
1936,7,28,2023,11,5,35,185,2493,-161,2917,-236,-2219,-516,
1937,7,28,2023,11,5,35,195,2913,-279,3522,-77,-2598,-606,
1938,7,28,2023,11,5,35,205,2619,-443,3094,-220,-2617,-357,
1939,7,28,2023,11,5,35,215,3019,-17,3169,-47,-3018,-471,
1940,7,28,2023,11,5,35,225,2825,-428,3660,-184,-3427,-368,
1941,7,28,2023,11,5,35,235,2924,-196,3391,-103,-3750,-392,
1942,7,28,2023,11,5,35,245,2385,-692,3664,-168,-4264,-420,
1943,7,28,2023,11,5,35,255,3144,-508,3079,-52,-5000,-726,
1944,7,28,2023,11,5,35,265,1387,-1303,3595,79,-6029,-1074,
1945,7,28,2023,11,5,35,275,3092,-1838,4242,353,-7492,-1507,
1946,7,28,2023,11,5,35,285,4277,-2059,4875,466,-8426,-1970,
1947,7,28,2023,11,5,35,295,3187,-2356,5540,487,-9407,-2615,
1948,7,28,2023,11,5,35,305,987,-2383,4504,491,-10877,-3593,
1949,7,28,2023,11,5,35,315,4061,-3597,6886,1442,-13695,-4773,
1950,7,28,2023,11,5,35,325,5118,-596,4024,1753,-15055,-5204,
1951,7,28,2023,11,5,35,335,6360,-1081,7466,1112,-15961,-5329,
1952,7,28,2023,11,5,35,345,6737,107,5793,726,-15828,-5253,
1953,7,28,2023,11,5,35,355,8443,-3189,6797,-557,-15076,-4510,
1954,7,28,2023,11,5,35,365,6779,-4009,5451,-102,-13506,-5129,
1955,7,28,2023,11,5,35,375,7484,-1945,7008,392,-12590,-5474,
1956,7,28,2023,11,5,35,395,1665,-144,5282,-2934,-10107,-4216,
1957,7,28,2023,11,5,35,405,9050,-1962,8644,-4392,-7515,-3273,
1958,7,28,2023,11,5,35,415,13547,-7800,9536,-5538,-683,-311,
1959,7,28,2023,11,5,35,425,-683,-7365,5032,-2416,5291,567,
1960,7,28,2023,11,5,35,435,-3456,-3961,3602,1221,5765,334,
1961,7,28,2023,11,5,35,445,-2078,-770,3800,2714,4466,-7,
1962,7,28,2023,11,5,35,455,-185,651,3850,1474,3559,590,
1963,7,28,2023,11,5,35,465,739,69,3911,-811,3874,1873,
1964,7,28,2023,11,5,35,475,1037,-1430,3658,-2454,4913,2957,
1965,7,28,2023,11,5,35,485,806,-2394,3208,-2539,6105,3465,
1966,7,28,2023,11,5,35,495,722,-2223,3129,-1403,7114,3575,
1967,7,28,2023,11,5,35,505,979,-1244,3290,-206,7942,3556,
1968,7,28,2023,11,5,35,515,1296,-106,3541,150,8731,3610,
1969,7,28,2023,11,5,35,525,1475,574,3632,-484,9525,3805,
1970,7,28,2023,11,5,35,535,1179,387,3440,-1569,10232,3977,
1971,7,28,2023,11,5,35,545,972,-333,3242,-2264,10632,3912,
1972,7,28,2023,11,5,35,555,1305,-829,3370,-2160,10758,3636,
1973,7,28,2023,11,5,35,565,2045,-666,3868,-1634,10858,3385,
1974,7,28,2023,11,5,35,575,2770,-260,4485,-1381,11087,3386,
1975,7,28,2023,11,5,35,585,3547,-130,5022,-1670,11427,3643,
1976,7,28,2023,11,5,35,595,4402,-572,5375,-2169,11846,3994,
1977,7,28,2023,11,5,35,605,5351,-1059,5625,-2404,12294,4192,
1978,7,28,2023,11,5,35,615,6307,-1430,5821,-2401,12737,4223,
1979,7,28,2023,11,5,35,625,7456,-1536,5638,-2387,12935,4262,
1980,7,28,2023,11,5,35,635,8832,-2150,4816,-2341,12744,4461,
1981,7,28,2023,11,5,35,645,10058,-1603,3387,-2027,12071,4862,
1982,7,28,2023,11,5,35,655,11639,-616,1981,-1653,10503,5600,
1983,7,28,2023,11,5,35,665,14488,-747,404,-1372,8754,6253,
1984,7,28,2023,11,5,35,675,16244,-465,-1506,-441,7771,6571,
1985,7,28,2023,11,5,35,685,15408,1505,-3882,893,7094,6294,
1986,7,28,2023,11,5,35,695,13340,4927,-5752,1520,5588,5427,
1987,7,28,2023,11,5,35,705,13139,5418,-6734,861,3347,4419,
1988,7,28,2023,11,5,35,715,13621,4209,-7585,917,1372,3133,
1989,7,28,2023,11,5,35,725,14176,4637,-7766,2342,-158,1625,
1990,7,28,2023,11,5,35,735,14691,4791,-8240,3166,-1571,253,
1991,7,28,2023,11,5,35,745,11969,4519,-9482,4046,-3480,-1582,
1992,7,28,2023,11,5,35,755,3869,5608,3000,3723,-6691,-3239,
1993,7,28,2023,11,5,35,765,8299,144,12166,670,-7065,-2879,
1994,7,28,2023,11,5,35,775,5331,-3112,7964,659,-3520,-2370,
1995,7,28,2023,11,5,35,785,1908,-1538,2607,1914,-2327,-2502,
1996,7,28,2023,11,5,35,795,9228,-1886,7675,2164,-3438,-1869,
1997,7,28,2023,11,5,35,805,6250,3237,5677,2597,-612,-1609,
1998,7,28,2023,11,5,35,815,1333,174,3942,1554,-133,-1089,
1999,7,28,2023,11,5,35,825,3385,-1150,3365,1071,-489,-658,
2000,7,28,2023,11,5,35,835,4633,221,3096,1003,-46,-659,
2001,7,28,2023,11,5,35,845,2386,-460,2996,568,81,-418,
2002,7,28,2023,11,5,35,855,1512,214,3894,377,4,-294,
2003,7,28,2023,11,5,35,865,3564,-127,2641,155,-13,-61,
2004,7,28,2023,11,5,35,875,394,-734,4969,20,129,40,
2005,7,28,2023,11,5,35,885,2871,-733,3898,-36,11,84,
2006,7,28,2023,11,5,35,895,1938,-452,4174,-139,-130,104,
2007,7,28,2023,11,5,35,905,1590,-587,4109,-199,-235,104,
2008,7,28,2023,11,5,35,915,2233,-657,3939,-300,-333,127,
2009,7,28,2023,11,5,35,925,2514,-403,4045,-311,-449,105,
2010,7,28,2023,11,5,35,935,2970,-665,3443,-335,-589,150,
2011,7,28,2023,11,5,35,945,1679,-605,3985,-332,-720,109,
2012,7,28,2023,11,5,35,955,2753,-632,3245,-334,-849,85,
2013,7,28,2023,11,5,35,965,1250,-821,4101,-354,-938,8,
2014,7,28,2023,11,5,35,975,3127,-582,3214,-292,-1217,-98,
2015,7,28,2023,11,5,35,985,983,-1051,3997,-371,-1186,1,
2016,7,28,2023,11,5,35,995,2679,-494,3830,-182,-1592,-293,
2017,7,28,2023,11,5,36,5,3207,-916,3065,-491,-1626,-105,
2018,7,28,2023,11,5,36,15,368,-868,4321,-354,-1863,-312,
2019,7,28,2023,11,5,36,25,3507,-998,2901,-512,-2238,-382,
2020,7,28,2023,11,5,36,35,2384,-115,3585,-368,-2397,-496,
2021,7,28,2023,11,5,36,45,3455,-388,2654,-429,-2642,-484,
2022,7,28,2023,11,5,36,55,1782,-472,3769,-435,-2770,-451,
2023,7,28,2023,11,5,36,65,3685,-732,2603,-408,-3039,-556,
2024,7,28,2023,11,5,36,75,2109,-219,2780,-485,-2978,-512,
2025,7,28,2023,11,5,36,85,2397,-1011,3600,-353,-3257,-716,
2026,7,28,2023,11,5,36,95,3087,-520,2451,-293,-3121,-629,
2027,7,28,2023,11,5,36,105,2297,-581,2758,-208,-3201,-718,
2028,7,28,2023,11,5,36,115,2774,-1055,2791,-225,-3221,-759,
2029,7,28,2023,11,5,36,125,2653,-1114,2787,-81,-3179,-921,
2030,7,28,2023,11,5,36,135,3488,-924,2187,-49,-3274,-1108,
2031,7,28,2023,11,5,36,145,3271,-577,2288,-13,-3384,-1282,
2032,7,28,2023,11,5,36,155,3573,-653,2580,48,-3581,-1483,
2033,7,28,2023,11,5,36,165,3066,-108,2501,184,-3548,-1473,
2034,7,28,2023,11,5,36,175,3886,-22,2987,389,-4072,-1425,
2035,7,28,2023,11,5,36,185,2724,377,1988,289,-4048,-1109,
2036,7,28,2023,11,5,36,195,2791,-191,4240,575,-4755,-1329,
2037,7,28,2023,11,5,36,205,4490,-179,2480,374,-4984,-1119,
2038,7,28,2023,11,5,36,215,1465,41,3435,595,-5333,-1117,
2039,7,28,2023,11,5,36,225,3521,-1085,3084,535,-6254,-1336,
2040,7,28,2023,11,5,36,235,2525,-436,2954,696,-7324,-1908,
2041,7,28,2023,11,5,36,255,4707,-1936,5037,1196,-11649,-3258,
2042,7,28,2023,11,5,36,265,4965,-1531,3855,1451,-13344,-3637,
2043,7,28,2023,11,5,36,275,6838,-967,7728,1306,-15163,-3892,
2044,7,28,2023,11,5,36,285,5862,-202,5874,969,-15752,-4213,
2045,7,28,2023,11,5,36,295,8731,240,7456,31,-17165,-3515,
2046,7,28,2023,11,5,36,305,10317,-4066,6551,-1514,-16392,-2952,
2047,7,28,2023,11,5,36,315,10730,-6317,6698,-1176,-14531,-3794,
2048,7,28,2023,11,5,36,325,10071,-4520,7933,-291,-12331,-5253,
2049,7,28,2023,11,5,36,335,7137,-3621,8041,-905,-9797,-5320,
2050,7,28,2023,11,5,36,345,637,-1412,6438,-1007,-8710,-5201,
2051,7,28,2023,11,5,36,355,11853,-2349,10021,-2633,-6301,-3621,
2052,7,28,2023,11,5,36,365,12445,-8131,10452,-4346,1043,82,
2053,7,28,2023,11,5,36,375,-1492,-6857,5833,-1845,6536,1385,
2054,7,28,2023,11,5,36,385,-3514,-3634,4596,977,6198,1440,
2055,7,28,2023,11,5,36,395,-2103,-949,4795,2081,4794,1435,
2056,7,28,2023,11,5,36,405,-327,68,5177,939,4029,2144,
2057,7,28,2023,11,5,36,415,1041,-554,5503,-767,4667,3213,
2058,7,28,2023,11,5,36,425,1676,-1630,5462,-1689,6356,3981,
2059,7,28,2023,11,5,36,435,1130,-1771,5142,-1292,8362,4226,
2060,7,28,2023,11,5,36,445,582,-835,4909,-429,9930,4178,
2061,7,28,2023,11,5,36,455,544,326,4808,-140,10833,4035,
2062,7,28,2023,11,5,36,465,1105,974,4767,-840,11427,3920,
2063,7,28,2023,11,5,36,475,1665,446,4537,-2067,12115,3848,
2064,7,28,2023,11,5,36,485,1813,-552,4177,-2648,12801,3754,
2065,7,28,2023,11,5,36,495,1884,-954,4046,-2259,13223,3595,
2066,7,28,2023,11,5,36,505,2116,-522,4283,-1580,13286,3489,
2067,7,28,2023,11,5,36,515,2712,-177,4651,-1445,13140,3576,
2068,7,28,2023,11,5,36,525,3819,-532,5227,-1788,12982,3813,
2069,7,28,2023,11,5,36,535,5119,-1168,5843,-2015,13080,4082,
2070,7,28,2023,11,5,36,545,6081,-1239,6413,-2017,13533,4329,
2071,7,28,2023,11,5,36,555,7105,-1465,6818,-2184,14046,4532,
2072,7,28,2023,11,5,36,565,8845,-2230,6550,-2592,14467,4626,
2073,7,28,2023,11,5,36,575,10571,-3549,5589,-2599,14757,4799,
2074,7,28,2023,11,5,36,585,12158,-2978,4033,-1993,14693,5259,
2075,7,28,2023,11,5,36,595,13090,-673,2194,-1543,13669,6453,
2076,7,28,2023,11,5,36,605,14938,-1110,-313,-2073,11897,7553,
2077,7,28,2023,11,5,36,615,16397,-1492,-2714,-1898,10120,7663,
2078,7,28,2023,11,5,36,625,15743,1841,-4140,-960,8337,6970,
2079,7,28,2023,11,5,36,635,14992,4811,-5638,-1542,6027,6339,
2080,7,28,2023,11,5,36,645,15510,3765,-7709,-2402,3534,5732,
2081,7,28,2023,11,5,36,655,15723,2817,-9135,-886,1507,4532,
2082,7,28,2023,11,5,36,665,15453,4244,-9440,1690,-387,2684,
2083,7,28,2023,11,5,36,675,16198,4570,-9140,2714,-2449,706,
2084,7,28,2023,11,5,36,685,14451,1740,-9208,3495,-4557,-1393,
2085,7,28,2023,11,5,36,695,1146,1083,152,5873,-7413,-3848,
2086,7,28,2023,11,5,36,705,112,1184,11527,4764,-9147,-4307,
2087,7,28,2023,11,5,36,715,5804,1018,6577,2321,-8601,-3009,
2088,7,28,2023,11,5,36,725,8301,2377,3121,1635,-8471,-2840,
2089,7,28,2023,11,5,36,735,12371,-3071,6962,2393,-8339,-3391,
2090,7,28,2023,11,5,36,745,14378,-2192,10634,5498,-4817,-4262,
2091,7,28,2023,11,5,36,755,3379,4735,5515,4313,1,-2277,
2092,7,28,2023,11,5,36,765,2266,-169,5443,2187,83,-1288,
2093,7,28,2023,11,5,36,775,4098,-837,4626,1390,11,-855,
2094,7,28,2023,11,5,36,785,3159,436,3681,882,153,-534,
2095,7,28,2023,11,5,36,795,2557,808,3667,412,-29,-214,
2096,7,28,2023,11,5,36,805,3023,-302,4320,76,-51,97,
2097,7,28,2023,11,5,36,815,3534,-707,3932,-35,49,194,
2098,7,28,2023,11,5,36,825,1112,-545,4534,-163,-35,220,
2099,7,28,2023,11,5,36,835,1048,-298,5050,-297,-384,219,
2100,7,28,2023,11,5,36,845,2874,-561,3408,-457,-537,327,
2101,7,28,2023,11,5,36,855,1306,-713,4629,-594,-745,315,
2102,7,28,2023,11,5,36,865,1780,-1000,4163,-645,-920,272,
2103,7,28,2023,11,5,36,875,2410,-563,3823,-626,-1108,253,
2104,7,28,2023,11,5,36,885,2185,-213,3605,-616,-1238,313,
2105,7,28,2023,11,5,36,895,2960,-248,3312,-701,-1534,368,
2106,7,28,2023,11,5,36,905,2035,-681,3554,-810,-1760,437,
2107,7,28,2023,11,5,36,915,1945,-1006,3697,-794,-1974,402,
2108,7,28,2023,11,5,36,925,2946,-1383,2980,-897,-2306,301,
2109,7,28,2023,11,5,36,935,879,-1194,3598,-896,-2465,228,
2110,7,28,2023,11,5,36,945,2773,-1633,3567,-589,-2807,-298,
2111,7,28,2023,11,5,36,955,2809,-1072,2975,-610,-2778,-262,
2112,7,28,2023,11,5,36,965,910,-684,3387,-348,-2927,-473,
2113,7,28,2023,11,5,36,975,3599,-930,2624,-348,-3203,-658,
2114,7,28,2023,11,5,36,985,3289,38,2284,-274,-3258,-732,
2115,7,28,2023,11,5,36,995,2334,-445,2835,-369,-3428,-686,
2116,7,28,2023,11,5,37,5,3062,-1237,2753,-223,-3564,-798,
2117,7,28,2023,11,5,37,15,2778,-724,2128,-51,-3446,-884,
2118,7,28,2023,11,5,37,25,1930,-1345,3095,-88,-3452,-1060,
2119,7,28,2023,11,5,37,35,3477,-1468,2279,-43,-3493,-1331,
2120,7,28,2023,11,5,37,45,2404,-922,2647,53,-3457,-1441,
2121,7,28,2023,11,5,37,55,2741,-1125,2696,47,-3527,-1561,
2122,7,28,2023,11,5,37,65,3643,-371,2281,110,-3698,-1716,
2123,7,28,2023,11,5,37,75,3909,178,2209,61,-3945,-1730,
2124,7,28,2023,11,5,37,85,3105,395,3302,238,-4254,-1624,
2125,7,28,2023,11,5,37,95,3051,19,3590,416,-4726,-1445,
2126,7,28,2023,11,5,37,115,2005,-30,3697,503,-5918,-1245,
2127,7,28,2023,11,5,37,125,3503,-833,4706,645,-7099,-1529,
2128,7,28,2023,11,5,37,135,3493,-504,3576,538,-7950,-1600,
2129,7,28,2023,11,5,37,145,990,-380,3803,625,-9195,-1893,
2130,7,28,2023,11,5,37,155,1664,-711,4487,618,-11470,-2415,
2131,7,28,2023,11,5,37,165,2414,-1185,5613,888,-14458,-2549,
2132,7,28,2023,11,5,37,175,4678,91,5503,472,-17230,-2016,
2133,7,28,2023,11,5,37,185,8409,1028,5611,-508,-19094,-1759,
2134,7,28,2023,11,5,37,195,12937,640,9594,-1601,-19793,-1413,
2135,7,28,2023,11,5,37,205,8863,-5715,6144,-3495,-18342,-509,
2136,7,28,2023,11,5,37,215,13923,-7595,9768,-2878,-17231,-2120,
2137,7,28,2023,11,5,37,225,9320,-6992,9712,-1755,-13585,-3956,
2138,7,28,2023,11,5,37,235,6010,-4699,9073,-1152,-10948,-5055,
2139,7,28,2023,11,5,37,245,1801,-2246,8114,-550,-10012,-5198,
2140,7,28,2023,11,5,37,255,15477,-3837,12063,-2326,-6634,-2917,
2141,7,28,2023,11,5,37,265,9968,-8622,11248,-3655,1951,-649,
2142,7,28,2023,11,5,37,275,-2909,-6479,6657,-1343,6868,-546,
2143,7,28,2023,11,5,37,285,-2919,-3539,5292,1027,6580,-1338,
2144,7,28,2023,11,5,37,295,-950,-1013,5010,1521,5807,-1818,
2145,7,28,2023,11,5,37,305,362,-399,4959,283,5851,-1060,
2146,7,28,2023,11,5,37,315,1326,-1373,4849,-1230,7005,348,
2147,7,28,2023,11,5,37,325,1231,-2408,4495,-1697,8700,1541,
2148,7,28,2023,11,5,37,335,1006,-2399,4117,-927,10238,2219,
2149,7,28,2023,11,5,37,345,1232,-1213,4133,82,11462,2624,
2150,7,28,2023,11,5,37,355,1402,166,4136,171,12489,3035,
2151,7,28,2023,11,5,37,365,1189,657,3825,-866,13355,3462,
2152,7,28,2023,11,5,37,375,1063,-23,3422,-2247,13917,3658,
2153,7,28,2023,11,5,37,385,1297,-1262,3000,-2845,14180,3540,
2154,7,28,2023,11,5,37,395,1724,-1719,3012,-2348,14300,3174,
2155,7,28,2023,11,5,37,405,2447,-1061,3601,-1741,14297,2817,
2156,7,28,2023,11,5,37,415,3293,-388,4387,-2067,14302,2695,
2157,7,28,2023,11,5,37,425,4694,-973,5056,-3303,14397,2709,
2158,7,28,2023,11,5,37,435,7200,-3217,5199,-4435,14785,2602,
2159,7,28,2023,11,5,37,445,10026,-3759,4503,-4310,15441,2783,
2160,7,28,2023,11,5,37,455,11400,-3768,3209,-3602,15762,3777,
2161,7,28,2023,11,5,37,465,12284,-2940,1721,-2999,14983,5362,
2162,7,28,2023,11,5,37,475,13515,-1028,493,-2304,12874,7670,
2163,7,28,2023,11,5,37,485,15948,578,-1272,-1825,10303,9971,
2164,7,28,2023,11,5,37,495,17830,2453,-3350,-1270,8049,10905,
2165,7,28,2023,11,5,37,505,18311,3965,-6106,-542,6001,9888,
2166,7,28,2023,11,5,37,515,16757,7289,-8980,734,3710,7176,
2167,7,28,2023,11,5,37,525,16595,7780,-10028,1569,1344,4388,
2168,7,28,2023,11,5,37,535,16878,6144,-11777,2642,-884,1604,
2169,7,28,2023,11,5,37,545,17909,8026,-14883,5015,-3304,-1738,
2170,7,28,2023,11,5,37,555,17805,12642,-12472,5782,-7040,-4356,
2171,7,28,2023,11,5,37,565,17766,2852,2386,1439,-9863,-5192,
2172,7,28,2023,11,5,37,575,22269,-9040,17864,2332,-5614,-4702,
2173,7,28,2023,11,5,37,585,-9312,-40,2961,2811,1249,-1765,
2174,7,28,2023,11,5,37,595,8181,1551,8086,3860,136,-2468,
2175,7,28,2023,11,5,37,605,5620,1391,7037,2618,630,-1589,
2176,7,28,2023,11,5,37,615,1117,141,3198,1365,153,-679,
2177,7,28,2023,11,5,37,625,1365,-1090,2160,1016,-365,-660,
2178,7,28,2023,11,5,37,635,2146,685,3037,810,-74,-600,
2179,7,28,2023,11,5,37,645,4484,865,3853,571,190,-282,
2180,7,28,2023,11,5,37,655,2774,-127,4411,250,269,110,
2181,7,28,2023,11,5,37,665,2293,-850,3534,113,160,173,
2182,7,28,2023,11,5,37,675,2544,-462,3982,34,9,74,
2183,7,28,2023,11,5,37,685,1182,-503,5306,-117,-134,104,
2184,7,28,2023,11,5,37,695,2468,-957,5069,-242,-442,105,
2185,7,28,2023,11,5,37,705,1809,-529,5342,-308,-732,85,
2186,7,28,2023,11,5,37,715,2348,-373,4849,-396,-1184,100,
2187,7,28,2023,11,5,37,725,2876,-618,4262,-547,-1883,31,
2188,7,28,2023,11,5,37,735,2998,-50,4435,-754,-2654,-72,
2189,7,28,2023,11,5,37,745,2449,-29,4425,-1079,-3403,13,
2190,7,28,2023,11,5,37,755,2308,-603,4490,-1243,-4309,86,
2191,7,28,2023,11,5,37,765,1111,-1388,5537,-1286,-5267,87,
2192,7,28,2023,11,5,37,775,3606,-1842,4498,-1062,-6106,-151,
2193,7,28,2023,11,5,37,785,1266,-1808,4089,-1135,-6859,-375,
2194,7,28,2023,11,5,37,795,1364,-1525,4436,-832,-7687,-868,
2195,7,28,2023,11,5,37,805,3209,-766,3226,-731,-8497,-1355,
2196,7,28,2023,11,5,37,815,2703,-409,3269,-711,-9445,-1667,
2197,7,28,2023,11,5,37,825,2880,-854,3007,-158,-9985,-1909,
2198,7,28,2023,11,5,37,835,1676,-568,3230,491,-10553,-2301,
2199,7,28,2023,11,5,37,845,2264,-754,3714,679,-11341,-2526,
2200,7,28,2023,11,5,37,855,4066,-91,2620,619,-11875,-2754,
2201,7,28,2023,11,5,37,865,4096,-100,2847,69,-11481,-2294,
2202,7,28,2023,11,5,37,875,5925,-239,1916,-285,-10810,-1503,
2203,7,28,2023,11,5,37,885,7432,313,891,-568,-9994,-1153,
2204,7,28,2023,11,5,37,895,6601,-1672,1310,-1014,-8688,-1022,
2205,7,28,2023,11,5,37,905,4321,-178,1939,-79,-7414,-1198,
2206,7,28,2023,11,5,37,915,4897,38,3134,274,-6918,-1062,
2207,7,28,2023,11,5,37,925,3401,40,3318,616,-6760,-616,
2208,7,28,2023,11,5,37,935,3398,-819,4282,1243,-7916,-637,
2209,7,28,2023,11,5,37,945,4459,-2228,6102,1973,-8949,-408,
2210,7,28,2023,11,5,37,955,5284,-3137,7815,2924,-8926,131,
2211,7,28,2023,11,5,37,975,2500,-772,9906,3053,-8147,654,
2212,7,28,2023,11,5,37,985,3577,-1019,11034,1516,-8549,180,
2213,7,28,2023,11,5,37,995,5108,-2372,12113,-63,-8191,-723,
2214,7,28,2023,11,5,38,5,5227,-3378,12092,-999,-6631,-1736,
2215,7,28,2023,11,5,38,15,3867,-3465,11218,-1202,-4271,-2562,
2216,7,28,2023,11,5,38,25,2547,-3213,10513,-1455,-1950,-3188,
2217,7,28,2023,11,5,38,35,1844,-3316,9800,-2397,-199,-3767,
2218,7,28,2023,11,5,38,45,1724,-3936,8529,-3632,1207,-4225,
2219,7,28,2023,11,5,38,55,2256,-4929,7271,-4322,2688,-4349,
2220,7,28,2023,11,5,38,65,2725,-5528,6501,-4226,4434,-4066,
2221,7,28,2023,11,5,38,75,2805,-5781,6025,-3682,6401,-3273,
2222,7,28,2023,11,5,38,85,2425,-5863,5827,-2851,8385,-2031,
2223,7,28,2023,11,5,38,95,2320,-5392,5523,-1955,10255,-437,
2224,7,28,2023,11,5,38,105,1433,-4599,4913,-1239,11985,1255,
2225,7,28,2023,11,5,38,115,961,-3320,4480,-1113,13048,2627,
2226,7,28,2023,11,5,38,125,1408,-2530,4193,-1815,13498,3679,
2227,7,28,2023,11,5,38,135,2185,-2602,4254,-2741,13730,4434,
2228,7,28,2023,11,5,38,145,3049,-2588,4783,-3256,13971,4879,
2229,7,28,2023,11,5,38,155,3863,-1750,5326,-3507,14408,5158,
2230,7,28,2023,11,5,38,165,4231,-826,5762,-4105,14914,5268,
2231,7,28,2023,11,5,38,175,4681,-297,6500,-5111,15213,5100,
2232,7,28,2023,11,5,38,185,6246,-249,7487,-6250,15423,4678,
2233,7,28,2023,11,5,38,195,8635,-1183,8010,-7064,15918,4193,
2234,7,28,2023,11,5,38,205,10829,-1682,7390,-6848,16440,4139,
2235,7,28,2023,11,5,38,215,12031,-1383,6016,-5754,16444,4840,
2236,7,28,2023,11,5,38,225,12815,854,4444,-4401,15171,6237,
2237,7,28,2023,11,5,38,235,14514,3434,2832,-3467,12560,7693,
2238,7,28,2023,11,5,38,245,16825,4989,846,-2890,9793,7918,
2239,7,28,2023,11,5,38,255,18158,6375,-1816,-1835,7649,6776,
2240,7,28,2023,11,5,38,265,19752,7517,-5263,-51,5844,5206,
2241,7,28,2023,11,5,38,275,19793,7950,-8596,1985,4408,3925,
2242,7,28,2023,11,5,38,285,17010,8445,-10661,3876,2814,3050,
2243,7,28,2023,11,5,38,295,14609,8647,-10279,4959,374,2144,
2244,7,28,2023,11,5,38,305,14258,8170,-8234,5122,-2088,1269,
2245,7,28,2023,11,5,38,315,11755,7508,-6658,4898,-3625,739,
2246,7,28,2023,11,5,38,325,8170,8692,-6472,3979,-5579,-207,
2247,7,28,2023,11,5,38,335,5482,2856,-5975,577,-8791,-2361,
2248,7,28,2023,11,5,38,345,6233,-6113,1239,217,-11355,-6946,
2249,7,28,2023,11,5,38,355,23152,-18703,7082,1978,-9807,-7584,
2250,7,28,2023,11,5,38,365,20838,2873,9036,5607,-2786,-2718,
2251,7,28,2023,11,5,38,375,-4247,9782,11316,3436,1389,-1881,
2252,7,28,2023,11,5,38,385,5512,-4581,7518,2486,629,-2365,
2253,7,28,2023,11,5,38,395,3068,-320,5694,2013,343,-1024,
2254,7,28,2023,11,5,38,405,2211,-89,1493,1580,218,-1020,
2255,7,28,2023,11,5,38,415,4042,2670,1464,1109,-126,-984,
2256,7,28,2023,11,5,38,425,3683,1131,3240,418,-14,-244,
2257,7,28,2023,11,5,38,435,2104,-676,4562,73,506,311,
2258,7,28,2023,11,5,38,445,873,-1972,5372,-56,579,333,
2259,7,28,2023,11,5,38,455,2131,-660,4287,-31,344,91,
2260,7,28,2023,11,5,38,465,1304,-246,4635,-166,39,54,
2261,7,28,2023,11,5,38,475,2757,-339,4516,-348,-135,151,
2262,7,28,2023,11,5,38,485,3057,-585,4330,-460,-423,127,
2263,7,28,2023,11,5,38,495,3080,-643,4212,-507,-782,46,
2264,7,28,2023,11,5,38,505,2403,-308,4455,-589,-1176,89,
2265,7,28,2023,11,5,38,515,2794,-459,4284,-685,-1656,103,
2266,7,28,2023,11,5,38,525,1072,-879,5004,-756,-2177,124,
2267,7,28,2023,11,5,38,535,2238,-314,5339,-1012,-3102,24,
2268,7,28,2023,11,5,38,545,2427,-595,5474,-1336,-4199,257,
