Packet #, Month, Day, Year, Hour, Minute, Second, MS, ACC X, ACC Y, ACC Z, GYR X, GYR Y, GYR Z
1,6,2,2023,12,7,2,854,0,0,0,0,0,0,
2,6,2,2023,12,7,2,864,0,0,0,0,0,0,
3,6,2,2023,12,7,2,874,0,0,0,0,0,0,
4,6,2,2023,12,7,2,884,0,0,0,0,0,0,
5,6,2,2023,12,7,2,894,0,0,0,0,0,0,
6,6,2,2023,12,7,2,904,0,0,0,0,0,0,
7,6,2,2023,12,7,2,914,-1351,-1519,3525,3,15,23,
8,6,2,2023,12,7,2,924,-1347,-1510,3531,-9,12,18,
9,6,2,2023,12,7,2,934,-1349,-1512,3530,1,16,20,
10,6,2,2023,12,7,2,944,-1341,-1523,3520,-1,13,22,
11,6,2,2023,12,7,2,954,-1345,-1514,3531,-4,12,25,
12,6,2,2023,12,7,2,964,-1345,-1516,3526,-7,10,25,
13,6,2,2023,12,7,2,974,-1350,-1527,3523,-3,5,28,
14,6,2,2023,12,7,2,984,-1355,-1524,3509,9,1,29,
15,6,2,2023,12,7,2,994,-1349,-1526,3520,9,-2,24,
16,6,2,2023,12,7,3,4,-1354,-1515,3525,15,-4,22,
17,6,2,2023,12,7,3,14,-1353,-1517,3512,15,-2,20,
18,6,2,2023,12,7,3,24,-1349,-1522,3513,16,0,24,
19,6,2,2023,12,7,3,34,-1353,-1515,3529,20,7,26,
20,6,2,2023,12,7,3,44,-1353,-1512,3525,17,5,22,
21,6,2,2023,12,7,3,54,-1343,-1499,3531,14,13,21,
22,6,2,2023,12,7,3,64,-1360,-1496,3538,9,18,24,
23,6,2,2023,12,7,3,74,-1355,-1511,3528,8,19,20,
24,6,2,2023,12,7,3,84,-1361,-1508,3525,7,11,13,
25,6,2,2023,12,7,3,94,-1358,-1511,3526,4,8,10,
26,6,2,2023,12,7,3,104,-1354,-1519,3528,1,8,5,
27,6,2,2023,12,7,3,114,-1355,-1507,3519,9,8,4,
28,6,2,2023,12,7,3,124,-1346,-1511,3526,12,3,7,
29,6,2,2023,12,7,3,134,-1347,-1514,3524,11,9,11,
30,6,2,2023,12,7,3,144,-1355,-1516,3517,9,25,14,
31,6,2,2023,12,7,3,154,-1360,-1514,3542,1,28,13,
32,6,2,2023,12,7,3,164,-1361,-1517,3519,-1,16,9,
33,6,2,2023,12,7,3,174,-1363,-1511,3510,13,9,9,
34,6,2,2023,12,7,3,184,-1369,-1503,3514,21,4,7,
35,6,2,2023,12,7,3,194,-1361,-1507,3517,28,0,0,
36,6,2,2023,12,7,3,204,-1351,-1514,3517,32,-1,-2,
37,6,2,2023,12,7,3,214,-1350,-1489,3540,41,-1,0,
38,6,2,2023,12,7,3,224,-1365,-1522,3513,34,4,0,
39,6,2,2023,12,7,3,234,-1362,-1513,3515,27,7,5,
40,6,2,2023,12,7,3,244,-1358,-1497,3532,19,7,4,
41,6,2,2023,12,7,3,254,-1362,-1487,3528,17,7,1,
42,6,2,2023,12,7,3,264,-1355,-1501,3514,5,8,6,
43,6,2,2023,12,7,3,274,-1366,-1512,3521,-2,5,5,
44,6,2,2023,12,7,3,284,-1372,-1507,3531,6,2,5,
45,6,2,2023,12,7,3,294,-1359,-1496,3530,1,1,3,
46,6,2,2023,12,7,3,304,-1358,-1505,3522,-12,-1,4,
47,6,2,2023,12,7,3,314,-1365,-1489,3532,-13,-6,1,
48,6,2,2023,12,7,3,324,-1364,-1500,3528,-12,-11,-4,
49,6,2,2023,12,7,3,334,-1352,-1491,3530,-19,-14,-8,
50,6,2,2023,12,7,3,344,-1356,-1500,3532,-27,-15,-10,
51,6,2,2023,12,7,3,354,-1364,-1496,3530,-36,-17,-7,
52,6,2,2023,12,7,3,364,-1364,-1498,3528,-49,-21,-9,
53,6,2,2023,12,7,3,374,-1364,-1501,3528,-58,-26,-9,
54,6,2,2023,12,7,3,384,-1358,-1506,3527,-71,-29,-11,
55,6,2,2023,12,7,3,394,-1353,-1508,3533,-79,-27,-10,
56,6,2,2023,12,7,3,404,-1350,-1506,3529,-88,-23,-3,
57,6,2,2023,12,7,3,414,-1350,-1515,3524,-87,-18,-3,
58,6,2,2023,12,7,3,424,-1361,-1515,3523,-83,-18,-3,
59,6,2,2023,12,7,3,434,-1357,-1516,3520,-81,-19,0,
60,6,2,2023,12,7,3,444,-1350,-1516,3522,-75,-23,-1,
61,6,2,2023,12,7,3,454,-1356,-1519,3522,-67,-25,-3,
62,6,2,2023,12,7,3,464,-1348,-1528,3512,-56,-23,-6,
63,6,2,2023,12,7,3,474,-1349,-1522,3517,-40,-21,-6,
64,6,2,2023,12,7,3,484,-1349,-1526,3526,-35,-18,-3,
65,6,2,2023,12,7,3,494,-1347,-1523,3523,-34,-17,-2,
66,6,2,2023,12,7,3,504,-1345,-1526,3513,-29,-17,0,
67,6,2,2023,12,7,3,514,-1349,-1520,3519,-29,-13,0,
68,6,2,2023,12,7,3,524,-1353,-1515,3521,-32,-8,3,
69,6,2,2023,12,7,3,534,-1352,-1529,3515,-34,-3,5,
70,6,2,2023,12,7,3,544,-1350,-1521,3521,-28,-2,5,
71,6,2,2023,12,7,3,554,-1354,-1524,3517,-30,-4,5,
72,6,2,2023,12,7,3,564,-1356,-1530,3516,-27,-8,3,
73,6,2,2023,12,7,3,574,-1361,-1533,3516,-18,-12,4,
74,6,2,2023,12,7,3,584,-1353,-1526,3514,-9,-19,0,
75,6,2,2023,12,7,3,594,-1340,-1528,3520,-6,-17,0,
76,6,2,2023,12,7,3,604,-1345,-1523,3527,-7,-15,3,
77,6,2,2023,12,7,3,614,-1348,-1513,3522,-11,-12,5,
78,6,2,2023,12,7,3,624,-1348,-1513,3520,-9,-3,5,
79,6,2,2023,12,7,3,634,-1351,-1524,3511,-13,2,3,
80,6,2,2023,12,7,3,644,-1355,-1524,3522,-14,2,4,
81,6,2,2023,12,7,3,654,-1350,-1535,3515,-10,0,7,
82,6,2,2023,12,7,3,664,-1349,-1527,3513,-9,0,6,
83,6,2,2023,12,7,3,674,-1356,-1532,3520,-11,-4,6,
84,6,2,2023,12,7,3,684,-1354,-1529,3513,-8,-6,3,
85,6,2,2023,12,7,3,694,-1350,-1531,3506,-8,-6,6,
86,6,2,2023,12,7,3,714,-1356,-1520,3520,-11,-2,13,
87,6,2,2023,12,7,3,724,-1357,-1524,3519,-15,-2,10,
88,6,2,2023,12,7,3,734,-1354,-1523,3519,-15,2,9,
89,6,2,2023,12,7,3,744,-1361,-1517,3516,-19,5,7,
90,6,2,2023,12,7,3,754,-1351,-1527,3518,-26,0,5,
91,6,2,2023,12,7,3,764,-1355,-1524,3515,-17,-4,7,
92,6,2,2023,12,7,3,774,-1356,-1532,3519,-16,-5,6,
93,6,2,2023,12,7,3,784,-1355,-1523,3516,-11,-5,2,
94,6,2,2023,12,7,3,794,-1362,-1540,3515,-5,-12,3,
95,6,2,2023,12,7,3,804,-1362,-1525,3521,-1,-12,3,
96,6,2,2023,12,7,3,814,-1356,-1530,3513,-4,-12,-1,
97,6,2,2023,12,7,3,824,-1350,-1527,3519,-3,-14,1,
98,6,2,2023,12,7,3,834,-1356,-1514,3520,-1,-16,0,
99,6,2,2023,12,7,3,844,-1355,-1526,3509,2,-17,0,
100,6,2,2023,12,7,3,854,-1352,-1520,3520,4,-18,-1,
101,6,2,2023,12,7,3,864,-1355,-1540,3513,5,-21,-1,
102,6,2,2023,12,7,3,874,-1357,-1530,3523,8,-19,-3,
103,6,2,2023,12,7,3,884,-1358,-1531,3515,7,-21,-1,
104,6,2,2023,12,7,3,894,-1352,-1513,3520,4,-22,1,
105,6,2,2023,12,7,3,904,-1348,-1534,3508,-8,-19,2,
106,6,2,2023,12,7,3,914,-1333,-1516,3529,-13,-20,4,
107,6,2,2023,12,7,3,924,-1338,-1512,3526,-15,-11,3,
108,6,2,2023,12,7,3,934,-1341,-1528,3521,-19,1,5,
109,6,2,2023,12,7,3,944,-1337,-1533,3516,-20,9,10,
110,6,2,2023,12,7,3,954,-1353,-1528,3525,-20,19,13,
111,6,2,2023,12,7,3,964,-1350,-1534,3508,-23,22,14,
112,6,2,2023,12,7,3,974,-1356,-1543,3507,-20,20,14,
113,6,2,2023,12,7,3,984,-1364,-1540,3512,-17,13,16,
114,6,2,2023,12,7,3,994,-1361,-1541,3511,-16,6,17,
115,6,2,2023,12,7,4,4,-1363,-1536,3516,-13,1,17,
116,6,2,2023,12,7,4,14,-1359,-1528,3518,-7,-5,16,
117,6,2,2023,12,7,4,24,-1354,-1519,3520,-5,-8,16,
118,6,2,2023,12,7,4,34,-1357,-1517,3524,-3,-14,9,
119,6,2,2023,12,7,4,44,-1364,-1522,3515,-4,-16,3,
120,6,2,2023,12,7,4,54,-1359,-1512,3521,-4,-17,5,
121,6,2,2023,12,7,4,64,-1352,-1520,3518,-9,-14,1,
122,6,2,2023,12,7,4,74,-1351,-1520,3520,-10,-15,2,
123,6,2,2023,12,7,4,84,-1351,-1529,3519,-10,-10,2,
124,6,2,2023,12,7,4,94,-1348,-1533,3520,-11,-7,0,
125,6,2,2023,12,7,4,104,-1350,-1531,3510,-15,-3,2,
126,6,2,2023,12,7,4,114,-1352,-1526,3517,-16,-2,6,
127,6,2,2023,12,7,4,124,-1352,-1531,3516,-14,-1,8,
128,6,2,2023,12,7,4,134,-1349,-1535,3513,-15,0,7,
129,6,2,2023,12,7,4,144,-1359,-1534,3510,-7,-3,10,
130,6,2,2023,12,7,4,154,-1356,-1533,3517,-3,-7,9,
131,6,2,2023,12,7,4,164,-1348,-1523,3517,-2,-8,8,
132,6,2,2023,12,7,4,174,-1355,-1518,3524,-3,-7,7,
133,6,2,2023,12,7,4,184,-1356,-1521,3524,-2,-9,1,
134,6,2,2023,12,7,4,194,-1363,-1526,3517,-8,-12,3,
135,6,2,2023,12,7,4,204,-1355,-1528,3515,-6,-12,3,
136,6,2,2023,12,7,4,214,-1358,-1527,3520,-4,-14,1,
137,6,2,2023,12,7,4,224,-1352,-1520,3519,-8,-17,4,
138,6,2,2023,12,7,4,234,-1347,-1527,3521,-14,-13,9,
139,6,2,2023,12,7,4,244,-1346,-1515,3524,-14,-7,12,
140,6,2,2023,12,7,4,254,-1357,-1526,3507,-15,-5,9,
141,6,2,2023,12,7,4,264,-1356,-1521,3516,-16,-6,6,
142,6,2,2023,12,7,4,274,-1349,-1525,3513,-18,-8,2,
143,6,2,2023,12,7,4,284,-1350,-1529,3523,-9,-8,1,
144,6,2,2023,12,7,4,294,-1347,-1532,3517,-7,-9,3,
145,6,2,2023,12,7,4,304,-1350,-1526,3518,-6,-7,3,
146,6,2,2023,12,7,4,314,-1347,-1532,3514,-12,-2,6,
147,6,2,2023,12,7,4,324,-1351,-1532,3518,-12,3,5,
148,6,2,2023,12,7,4,334,-1345,-1531,3516,-13,7,7,
149,6,2,2023,12,7,4,344,-1347,-1532,3516,-20,15,15,
150,6,2,2023,12,7,4,354,-1354,-1531,3523,-24,19,18,
151,6,2,2023,12,7,4,364,-1358,-1535,3515,-20,20,17,
152,6,2,2023,12,7,4,374,-1361,-1533,3508,-18,21,19,
153,6,2,2023,12,7,4,384,-1374,-1529,3517,-19,18,15,
154,6,2,2023,12,7,4,394,-1361,-1541,3503,-20,11,11,
155,6,2,2023,12,7,4,404,-1365,-1533,3512,-13,2,11,
156,6,2,2023,12,7,4,414,-1364,-1538,3515,-11,0,10,
157,6,2,2023,12,7,4,424,-1358,-1524,3514,-12,1,13,
158,6,2,2023,12,7,4,434,-1351,-1532,3522,-15,1,10,
159,6,2,2023,12,7,4,444,-1355,-1522,3516,-18,8,12,
160,6,2,2023,12,7,4,454,-1356,-1519,3519,-20,12,14,
161,6,2,2023,12,7,4,464,-1359,-1524,3518,-26,12,14,
162,6,2,2023,12,7,4,474,-1360,-1534,3511,-26,8,12,
163,6,2,2023,12,7,4,484,-1361,-1524,3511,-11,10,10,
164,6,2,2023,12,7,4,494,-1369,-1553,3498,-11,5,13,
165,6,2,2023,12,7,4,504,-1366,-1520,3522,-6,4,11,
166,6,2,2023,12,7,4,514,-1370,-1542,3502,-8,2,13,
167,6,2,2023,12,7,4,524,-1366,-1540,3512,2,-1,11,
168,6,2,2023,12,7,4,534,-1367,-1520,3515,8,-7,11,
169,6,2,2023,12,7,4,544,-1360,-1529,3517,2,-13,7,
170,6,2,2023,12,7,4,554,-1362,-1531,3513,4,-8,5,
171,6,2,2023,12,7,4,574,-1362,-1534,3511,-4,-13,9,
172,6,2,2023,12,7,4,584,-1362,-1526,3518,2,-12,3,
173,6,2,2023,12,7,4,594,-1363,-1532,3516,5,-14,5,
174,6,2,2023,12,7,4,604,-1353,-1523,3515,1,-13,6,
175,6,2,2023,12,7,4,614,-1360,-1530,3517,-5,-5,7,
176,6,2,2023,12,7,4,624,-1360,-1532,3515,-10,-1,9,
177,6,2,2023,12,7,4,634,-1363,-1527,3515,-17,0,11,
178,6,2,2023,12,7,4,644,-1364,-1526,3512,-23,1,13,
179,6,2,2023,12,7,4,654,-1374,-1516,3516,-25,1,7,
180,6,2,2023,12,7,4,664,-1367,-1521,3515,-21,-6,2,
181,6,2,2023,12,7,4,674,-1368,-1518,3517,-14,-12,1,
182,6,2,2023,12,7,4,684,-1371,-1533,3509,-14,-19,-4,
183,6,2,2023,12,7,4,694,-1372,-1527,3510,-13,-20,-11,
184,6,2,2023,12,7,4,704,-1366,-1534,3511,-11,-27,-14,
185,6,2,2023,12,7,4,714,-1361,-1526,3529,-10,-27,-19,
186,6,2,2023,12,7,4,724,-1357,-1529,3516,-13,-32,-16,
187,6,2,2023,12,7,4,734,-1351,-1544,3505,-15,-27,-10,
188,6,2,2023,12,7,4,744,-1350,-1518,3518,-22,-23,-12,
189,6,2,2023,12,7,4,754,-1356,-1527,3519,-30,-17,-13,
190,6,2,2023,12,7,4,764,-1350,-1531,3527,-27,-16,-13,
191,6,2,2023,12,7,4,774,-1356,-1552,3511,-20,-17,-11,
192,6,2,2023,12,7,4,784,-1357,-1532,3515,-15,-17,-11,
193,6,2,2023,12,7,4,794,-1360,-1546,3510,-15,-20,-12,
194,6,2,2023,12,7,4,804,-1357,-1539,3506,-11,-20,-11,
195,6,2,2023,12,7,4,814,-1356,-1533,3515,-5,-19,-8,
196,6,2,2023,12,7,4,824,-1343,-1547,3509,-7,-17,-4,
197,6,2,2023,12,7,4,834,-1349,-1545,3525,-5,-7,1,
198,6,2,2023,12,7,4,844,-1346,-1546,3514,-11,-1,3,
199,6,2,2023,12,7,4,854,-1340,-1537,3517,-14,10,10,
200,6,2,2023,12,7,4,864,-1352,-1533,3521,-18,15,13,
201,6,2,2023,12,7,4,874,-1354,-1532,3515,-17,15,13,
202,6,2,2023,12,7,4,884,-1362,-1527,3520,-12,13,15,
203,6,2,2023,12,7,4,894,-1365,-1552,3509,-7,10,8,
204,6,2,2023,12,7,4,904,-1364,-1532,3517,2,7,9,
205,6,2,2023,12,7,4,914,-1364,-1525,3518,5,1,5,
206,6,2,2023,12,7,4,924,-1372,-1543,3503,14,-11,1,
207,6,2,2023,12,7,4,934,-1366,-1525,3512,15,-17,-4,
208,6,2,2023,12,7,4,944,-1363,-1533,3514,18,-25,-8,
209,6,2,2023,12,7,4,954,-1361,-1528,3517,20,-27,-12,
210,6,2,2023,12,7,4,964,-1356,-1528,3518,11,-29,-13,
211,6,2,2023,12,7,4,974,-1346,-1528,3517,3,-21,-11,
212,6,2,2023,12,7,4,984,-1358,-1524,3528,-4,-11,-10,
213,6,2,2023,12,7,4,994,-1354,-1541,3504,-15,-7,-11,
214,6,2,2023,12,7,5,4,-1351,-1524,3524,-14,-7,-10,
215,6,2,2023,12,7,5,14,-1358,-1541,3508,-14,-6,-10,
216,6,2,2023,12,7,5,24,-1370,-1528,3512,-10,-4,-15,
217,6,2,2023,12,7,5,34,-1352,-1541,3517,-16,-10,-14,
218,6,2,2023,12,7,5,44,-1352,-1542,3513,-15,-13,-10,
219,6,2,2023,12,7,5,54,-1362,-1547,3499,-11,-14,-13,
220,6,2,2023,12,7,5,64,-1360,-1542,3507,-6,-19,-19,
221,6,2,2023,12,7,5,74,-1356,-1543,3497,3,-26,-16,
222,6,2,2023,12,7,5,84,-1360,-1522,3513,18,-26,-12,
223,6,2,2023,12,7,5,94,-1353,-1532,3510,11,-29,-13,
224,6,2,2023,12,7,5,104,-1361,-1526,3519,16,-28,-16,
225,6,2,2023,12,7,5,114,-1352,-1531,3513,11,-26,-19,
226,6,2,2023,12,7,5,124,-1352,-1528,3515,11,-30,-18,
227,6,2,2023,12,7,5,134,-1357,-1530,3528,6,-31,-16,
228,6,2,2023,12,7,5,144,-1343,-1541,3514,0,-36,-20,
229,6,2,2023,12,7,5,154,-1339,-1554,3517,7,-33,-19,
230,6,2,2023,12,7,5,164,-1333,-1529,3518,6,-21,-14,
231,6,2,2023,12,7,5,174,-1337,-1528,3524,1,-13,-8,
232,6,2,2023,12,7,5,184,-1334,-1536,3523,0,-1,-1,
233,6,2,2023,12,7,5,194,-1341,-1535,3511,-1,16,2,
234,6,2,2023,12,7,5,204,-1348,-1534,3514,0,21,5,
235,6,2,2023,12,7,5,214,-1353,-1522,3516,1,18,6,
236,6,2,2023,12,7,5,224,-1355,-1539,3520,8,17,4,
237,6,2,2023,12,7,5,234,-1351,-1553,3510,13,18,3,
238,6,2,2023,12,7,5,244,-1353,-1536,3521,19,16,7,
239,6,2,2023,12,7,5,254,-1359,-1541,3517,15,17,10,
240,6,2,2023,12,7,5,264,-1359,-1527,3516,13,10,9,
241,6,2,2023,12,7,5,274,-1363,-1523,3521,11,8,3,
242,6,2,2023,12,7,5,284,-1359,-1525,3523,3,0,1,
243,6,2,2023,12,7,5,294,-1359,-1525,3513,-2,-10,-2,
244,6,2,2023,12,7,5,304,-1356,-1520,3519,-1,-9,-6,
245,6,2,2023,12,7,5,314,-1350,-1518,3522,-7,-11,-6,
246,6,2,2023,12,7,5,324,-1346,-1518,3527,-9,-5,-5,
247,6,2,2023,12,7,5,334,-1343,-1509,3528,-22,4,-2,
248,6,2,2023,12,7,5,344,-1350,-1517,3519,-31,7,-2,
249,6,2,2023,12,7,5,354,-1358,-1521,3517,-35,8,0,
250,6,2,2023,12,7,5,364,-1353,-1530,3521,-41,7,-3,
251,6,2,2023,12,7,5,374,-1344,-1547,3513,-46,13,1,
252,6,2,2023,12,7,5,384,-1342,-1546,3517,-59,24,8,
253,6,2,2023,12,7,5,394,-1340,-1541,3514,-73,32,14,
254,6,2,2023,12,7,5,404,-1344,-1538,3511,-82,42,18,
255,6,2,2023,12,7,5,414,-1340,-1529,3514,-93,54,26,
256,6,2,2023,12,7,5,434,-1358,-1545,3502,-103,61,31,
257,6,2,2023,12,7,5,444,-1360,-1546,3505,-106,61,27,
258,6,2,2023,12,7,5,454,-1371,-1567,3507,-95,59,29,
259,6,2,2023,12,7,5,464,-1367,-1538,3494,-90,57,29,
260,6,2,2023,12,7,5,474,-1369,-1578,3500,-97,56,31,
261,6,2,2023,12,7,5,484,-1377,-1569,3494,-65,48,29,
262,6,2,2023,12,7,5,494,-1372,-1556,3500,-47,37,26,
263,6,2,2023,12,7,5,504,-1375,-1554,3493,-33,26,19,
264,6,2,2023,12,7,5,514,-1382,-1541,3500,-17,15,16,
265,6,2,2023,12,7,5,524,-1373,-1543,3502,-7,7,11,
266,6,2,2023,12,7,5,534,-1376,-1548,3491,-3,9,8,
267,6,2,2023,12,7,5,544,-1381,-1556,3492,-1,4,3,
268,6,2,2023,12,7,5,554,-1380,-1565,3494,5,-7,6,
269,6,2,2023,12,7,5,564,-1378,-1555,3486,10,-12,4,
270,6,2,2023,12,7,5,574,-1385,-1544,3487,23,-25,-2,
271,6,2,2023,12,7,5,584,-1382,-1551,3490,41,-40,-6,
272,6,2,2023,12,7,5,594,-1377,-1551,3494,54,-57,-15,
273,6,2,2023,12,7,5,604,-1374,-1551,3500,71,-72,-19,
274,6,2,2023,12,7,5,614,-1364,-1547,3508,76,-78,-22,
275,6,2,2023,12,7,5,624,-1357,-1533,3514,64,-80,-20,
276,6,2,2023,12,7,5,634,-1352,-1533,3512,56,-73,-20,
277,6,2,2023,12,7,5,644,-1349,-1540,3518,48,-64,-18,
278,6,2,2023,12,7,5,654,-1346,-1539,3520,38,-53,-16,
279,6,2,2023,12,7,5,664,-1350,-1535,3516,32,-40,-14,
280,6,2,2023,12,7,5,674,-1347,-1548,3513,21,-34,-10,
281,6,2,2023,12,7,5,684,-1347,-1543,3511,15,-24,-3,
282,6,2,2023,12,7,5,694,-1354,-1537,3513,8,-22,-1,
283,6,2,2023,12,7,5,704,-1357,-1529,3520,-2,-19,1,
284,6,2,2023,12,7,5,714,-1351,-1538,3521,-12,-10,2,
285,6,2,2023,12,7,5,724,-1355,-1537,3517,-13,-7,2,
286,6,2,2023,12,7,5,734,-1362,-1534,3510,-12,-8,-1,
287,6,2,2023,12,7,5,744,-1355,-1540,3491,-16,-6,-2,
288,6,2,2023,12,7,5,754,-1364,-1543,3521,-16,0,-3,
289,6,2,2023,12,7,5,764,-1370,-1554,3507,-4,-21,-6,
290,6,2,2023,12,7,5,774,-1359,-1547,3504,7,-34,-10,
291,6,2,2023,12,7,5,784,-1349,-1540,3509,10,-32,-8,
292,6,2,2023,12,7,5,794,-1359,-1554,3513,6,-23,-5,
293,6,2,2023,12,7,5,804,-1355,-1540,3522,13,-26,-7,
294,6,2,2023,12,7,5,814,-1355,-1540,3515,18,-28,-12,
295,6,2,2023,12,7,5,824,-1344,-1533,3509,20,-31,-12,
296,6,2,2023,12,7,5,834,-1354,-1534,3520,25,-26,-9,
297,6,2,2023,12,7,5,844,-1346,-1534,3526,21,-23,-11,
298,6,2,2023,12,7,5,854,-1355,-1547,3521,23,-23,-11,
299,6,2,2023,12,7,5,864,-1358,-1535,3519,25,-21,-17,
300,6,2,2023,12,7,5,874,-1347,-1527,3526,19,-21,-19,
301,6,2,2023,12,7,5,884,-1354,-1531,3516,8,-17,-13,
302,6,2,2023,12,7,5,894,-1354,-1528,3514,-2,-14,-11,
303,6,2,2023,12,7,5,904,-1346,-1521,3519,-7,-8,-7,
304,6,2,2023,12,7,5,914,-1344,-1534,3534,-18,-3,-6,
305,6,2,2023,12,7,5,924,-1349,-1512,3526,-18,2,-10,
306,6,2,2023,12,7,5,934,-1348,-1516,3519,-13,1,-11,
307,6,2,2023,12,7,5,944,-1353,-1526,3515,0,1,-15,
308,6,2,2023,12,7,5,954,-1369,-1521,3506,7,-2,-18,
309,6,2,2023,12,7,5,964,-1344,-1542,3512,9,-11,-20,
310,6,2,2023,12,7,5,974,-1353,-1546,3515,16,-12,-21,
311,6,2,2023,12,7,5,984,-1349,-1547,3496,14,-12,-18,
312,6,2,2023,12,7,5,994,-1348,-1538,3507,10,-11,-15,
313,6,2,2023,12,7,6,4,-1351,-1544,3517,14,-13,-18,
314,6,2,2023,12,7,6,14,-1350,-1544,3515,19,-20,-12,
315,6,2,2023,12,7,6,24,-1341,-1551,3504,12,-23,-10,
316,6,2,2023,12,7,6,34,-1349,-1554,3506,11,-18,-9,
317,6,2,2023,12,7,6,44,-1345,-1535,3504,-7,-7,-6,
318,6,2,2023,12,7,6,54,-1354,-1568,3520,-27,5,6,
319,6,2,2023,12,7,6,64,-1355,-1530,3538,-9,-8,3,
320,6,2,2023,12,7,6,74,-1345,-1538,3507,-1,-26,0,
321,6,2,2023,12,7,6,84,-1350,-1533,3520,8,-31,6,
322,6,2,2023,12,7,6,94,-1347,-1537,3517,1,-30,7,
323,6,2,2023,12,7,6,104,-1351,-1528,3526,4,-26,11,
324,6,2,2023,12,7,6,114,-1354,-1529,3510,2,-28,8,
325,6,2,2023,12,7,6,124,-1343,-1538,3508,-3,-23,12,
326,6,2,2023,12,7,6,134,-1339,-1521,3513,-1,-10,10,
327,6,2,2023,12,7,6,144,-1347,-1550,3531,-12,1,10,
328,6,2,2023,12,7,6,154,-1342,-1542,3525,6,-10,11,
329,6,2,2023,12,7,6,164,-1345,-1540,3515,2,-14,10,
330,6,2,2023,12,7,6,174,-1348,-1519,3522,-2,-12,9,
331,6,2,2023,12,7,6,184,-1354,-1515,3523,-9,-9,9,
332,6,2,2023,12,7,6,194,-1353,-1527,3519,-10,-9,12,
333,6,2,2023,12,7,6,204,-1346,-1537,3511,-10,-9,7,
334,6,2,2023,12,7,6,214,-1360,-1539,3512,-9,-12,4,
335,6,2,2023,12,7,6,224,-1363,-1533,3516,-6,-17,2,
336,6,2,2023,12,7,6,234,-1365,-1538,3513,-3,-22,-3,
337,6,2,2023,12,7,6,244,-1348,-1532,3503,1,-32,-6,
338,6,2,2023,12,7,6,254,-1348,-1512,3514,8,-44,-9,
339,6,2,2023,12,7,6,264,-1328,-1532,3518,-2,-35,-10,
340,6,2,2023,12,7,6,274,-1330,-1535,3532,1,-31,-8,
341,6,2,2023,12,7,6,294,-1347,-1533,3524,-7,-23,-5,
342,6,2,2023,12,7,6,304,-1334,-1529,3520,-8,-20,-5,
343,6,2,2023,12,7,6,314,-1333,-1536,3517,-14,-17,-2,
344,6,2,2023,12,7,6,324,-1348,-1528,3517,-7,-18,0,
345,6,2,2023,12,7,6,334,-1342,-1540,3494,-4,-24,-6,
346,6,2,2023,12,7,6,344,-1353,-1539,3521,5,-21,-4,
347,6,2,2023,12,7,6,354,-1340,-1543,3527,8,-27,-4,
348,6,2,2023,12,7,6,364,-1334,-1543,3519,8,-23,-4,
349,6,2,2023,12,7,6,374,-1339,-1524,3531,8,-16,-1,
350,6,2,2023,12,7,6,384,-1339,-1539,3516,-1,-19,0,
351,6,2,2023,12,7,6,394,-1332,-1527,3529,-7,-14,-3,
352,6,2,2023,12,7,6,404,-1332,-1529,3523,-10,-10,1,
353,6,2,2023,12,7,6,414,-1344,-1526,3521,-12,-5,2,
354,6,2,2023,12,7,6,424,-1342,-1511,3528,-17,-5,3,
355,6,2,2023,12,7,6,434,-1344,-1521,3523,-16,-6,-1,
356,6,2,2023,12,7,6,444,-1348,-1526,3520,-15,-11,-4,
357,6,2,2023,12,7,6,454,-1336,-1528,3521,-13,-13,-7,
358,6,2,2023,12,7,6,464,-1340,-1528,3517,-15,-13,-6,
359,6,2,2023,12,7,6,474,-1335,-1538,3520,-20,-10,-6,
360,6,2,2023,12,7,6,484,-1342,-1532,3521,-23,-5,-3,
361,6,2,2023,12,7,6,494,-1340,-1532,3523,-28,0,2,
362,6,2,2023,12,7,6,504,-1338,-1529,3517,-25,-2,1,
363,6,2,2023,12,7,6,514,-1336,-1519,3512,-27,2,2,
364,6,2,2023,12,7,6,524,-1343,-1540,3518,-30,3,3,
365,6,2,2023,12,7,6,534,-1332,-1545,3520,-24,-3,3,
366,6,2,2023,12,7,6,544,-1342,-1554,3507,-16,5,6,
367,6,2,2023,12,7,6,554,-1340,-1547,3517,-15,12,11,
368,6,2,2023,12,7,6,564,-1334,-1540,3512,-19,14,13,
369,6,2,2023,12,7,6,574,-1340,-1538,3509,-26,14,15,
370,6,2,2023,12,7,6,584,-1344,-1526,3527,-27,17,13,
371,6,2,2023,12,7,6,594,-1349,-1545,3520,-28,14,17,
372,6,2,2023,12,7,6,604,-1338,-1532,3511,-28,5,17,
373,6,2,2023,12,7,6,614,-1333,-1547,3506,-22,4,12,
374,6,2,2023,12,7,6,624,-1354,-1558,3512,-10,3,16,
375,6,2,2023,12,7,6,634,-1343,-1544,3514,-4,-1,16,
376,6,2,2023,12,7,6,644,-1341,-1548,3509,-3,-2,17,
377,6,2,2023,12,7,6,654,-1359,-1525,3529,5,-1,21,
378,6,2,2023,12,7,6,664,-1348,-1541,3509,-1,-11,17,
379,6,2,2023,12,7,6,674,-1347,-1536,3518,7,-14,13,
380,6,2,2023,12,7,6,684,-1354,-1535,3527,13,-21,17,
381,6,2,2023,12,7,6,694,-1344,-1540,3523,11,-23,13,
382,6,2,2023,12,7,6,704,-1347,-1522,3530,9,-19,13,
383,6,2,2023,12,7,6,714,-1335,-1540,3520,7,-22,13,
384,6,2,2023,12,7,6,724,-1348,-1536,3526,12,-20,9,
385,6,2,2023,12,7,6,734,-1352,-1545,3519,10,-20,5,
386,6,2,2023,12,7,6,744,-1344,-1538,3525,21,-26,6,
387,6,2,2023,12,7,6,754,-1338,-1532,3523,24,-24,10,
388,6,2,2023,12,7,6,764,-1347,-1527,3526,17,-23,7,
389,6,2,2023,12,7,6,774,-1348,-1536,3521,10,-29,6,
390,6,2,2023,12,7,6,784,-1345,-1524,3526,12,-29,10,
391,6,2,2023,12,7,6,794,-1335,-1544,3511,7,-31,9,
392,6,2,2023,12,7,6,804,-1345,-1531,3528,8,-27,11,
393,6,2,2023,12,7,6,814,-1344,-1535,3526,2,-25,8,
394,6,2,2023,12,7,6,824,-1347,-1529,3524,6,-28,5,
395,6,2,2023,12,7,6,834,-1345,-1534,3516,9,-29,0,
396,6,2,2023,12,7,6,844,-1351,-1522,3535,14,-32,-3,
397,6,2,2023,12,7,6,854,-1345,-1566,3497,6,-35,-7,
398,6,2,2023,12,7,6,864,-1330,-1492,3554,15,-35,-9,
399,6,2,2023,12,7,6,874,-1336,-1545,3524,9,-36,-2,
400,6,2,2023,12,7,6,884,-1341,-1522,3533,9,-32,-2,
401,6,2,2023,12,7,6,894,-1338,-1548,3510,9,-32,5,
402,6,2,2023,12,7,6,904,-1346,-1512,3532,17,-26,2,
403,6,2,2023,12,7,6,914,-1324,-1516,3536,5,-23,-3,
404,6,2,2023,12,7,6,924,-1335,-1532,3530,2,-22,0,
405,6,2,2023,12,7,6,934,-1344,-1535,3523,-3,-20,1,
406,6,2,2023,12,7,6,944,-1335,-1517,3513,0,-14,-2,
407,6,2,2023,12,7,6,954,-1341,-1545,3528,-5,-10,0,
408,6,2,2023,12,7,6,964,-1338,-1554,3522,2,-17,-4,
409,6,2,2023,12,7,6,974,-1329,-1537,3529,4,-16,-4,
410,6,2,2023,12,7,6,984,-1340,-1529,3536,5,-16,0,
411,6,2,2023,12,7,6,994,-1330,-1548,3513,11,-29,-3,
412,6,2,2023,12,7,7,4,-1333,-1521,3531,20,-27,-1,
413,6,2,2023,12,7,7,14,-1330,-1538,3519,16,-27,1,
414,6,2,2023,12,7,7,24,-1323,-1523,3519,20,-29,2,
415,6,2,2023,12,7,7,34,-1326,-1520,3521,28,-29,1,
416,6,2,2023,12,7,7,44,-1323,-1536,3520,29,-28,4,
417,6,2,2023,12,7,7,54,-1330,-1529,3521,35,-23,8,
418,6,2,2023,12,7,7,64,-1334,-1522,3515,31,-20,11,
419,6,2,2023,12,7,7,74,-1312,-1514,3501,28,-11,11,
420,6,2,2023,12,7,7,84,-1333,-1523,3560,20,17,18,
421,6,2,2023,12,7,7,94,-1336,-1514,3541,16,-2,16,
422,6,2,2023,12,7,7,104,-1328,-1494,3534,11,-12,11,
423,6,2,2023,12,7,7,114,-1336,-1469,3550,0,-10,13,
424,6,2,2023,12,7,7,124,-1344,-1506,3532,-18,-11,13,
425,6,2,2023,12,7,7,134,-1337,-1520,3533,-30,-8,12,
426,6,2,2023,12,7,7,154,-1327,-1547,3513,-22,-7,15,
427,6,2,2023,12,7,7,164,-1320,-1544,3512,-17,-1,21,
428,6,2,2023,12,7,7,174,-1321,-1545,3516,-11,5,23,
429,6,2,2023,12,7,7,184,-1330,-1521,3524,4,5,27,
430,6,2,2023,12,7,7,194,-1331,-1499,3534,-6,12,33,
431,6,2,2023,12,7,7,204,-1333,-1516,3532,-16,16,31,
432,6,2,2023,12,7,7,214,-1329,-1509,3531,-20,21,31,
433,6,2,2023,12,7,7,224,-1344,-1521,3527,-22,28,33,
434,6,2,2023,12,7,7,234,-1351,-1528,3529,-24,19,31,
435,6,2,2023,12,7,7,244,-1353,-1535,3520,-22,14,29,
436,6,2,2023,12,7,7,254,-1355,-1524,3527,-15,8,26,
437,6,2,2023,12,7,7,264,-1351,-1536,3516,-15,-2,20,
438,6,2,2023,12,7,7,274,-1343,-1532,3520,-4,-14,16,
439,6,2,2023,12,7,7,284,-1344,-1538,3510,10,-23,14,
440,6,2,2023,12,7,7,294,-1342,-1515,3520,16,-29,9,
441,6,2,2023,12,7,7,304,-1333,-1508,3546,15,-25,9,
442,6,2,2023,12,7,7,314,-1327,-1498,3543,10,-23,14,
443,6,2,2023,12,7,7,324,-1324,-1501,3547,7,-15,12,
444,6,2,2023,12,7,7,334,-1330,-1506,3547,-6,-1,12,
445,6,2,2023,12,7,7,344,-1344,-1513,3531,-20,7,13,
446,6,2,2023,12,7,7,354,-1341,-1521,3526,-22,11,16,
447,6,2,2023,12,7,7,364,-1348,-1528,3526,-31,11,17,
448,6,2,2023,12,7,7,374,-1348,-1519,3526,-31,5,13,
449,6,2,2023,12,7,7,384,-1348,-1525,3521,-25,1,10,
450,6,2,2023,12,7,7,394,-1356,-1524,3526,-18,-6,8,
451,6,2,2023,12,7,7,404,-1345,-1528,3521,-19,-10,2,
452,6,2,2023,12,7,7,414,-1345,-1521,3521,-16,-18,-3,
453,6,2,2023,12,7,7,424,-1347,-1515,3529,-7,-20,-4,
454,6,2,2023,12,7,7,434,-1351,-1519,3529,-5,-24,-6,
455,6,2,2023,12,7,7,444,-1343,-1528,3522,-5,-29,-9,
456,6,2,2023,12,7,7,454,-1337,-1531,3527,-1,-31,-6,
457,6,2,2023,12,7,7,464,-1339,-1522,3531,1,-38,-10,
458,6,2,2023,12,7,7,474,-1336,-1533,3522,-6,-33,-9,
459,6,2,2023,12,7,7,484,-1330,-1524,3528,-1,-27,-7,
460,6,2,2023,12,7,7,494,-1328,-1531,3527,-5,-23,-3,
461,6,2,2023,12,7,7,504,-1325,-1526,3523,-9,-15,1,
462,6,2,2023,12,7,7,514,-1327,-1521,3525,-13,-9,4,
463,6,2,2023,12,7,7,524,-1331,-1522,3518,-13,-4,9,
464,6,2,2023,12,7,7,534,-1337,-1513,3530,-14,-2,13,
465,6,2,2023,12,7,7,544,-1347,-1509,3536,-17,3,10,
466,6,2,2023,12,7,7,554,-1338,-1520,3529,-20,-2,6,
467,6,2,2023,12,7,7,564,-1340,-1529,3526,-17,-9,1,
468,6,2,2023,12,7,7,574,-1347,-1524,3532,-11,-14,-1,
469,6,2,2023,12,7,7,584,-1339,-1513,3530,-13,-14,-2,
470,6,2,2023,12,7,7,594,-1331,-1511,3530,-16,-17,-5,
471,6,2,2023,12,7,7,604,-1331,-1514,3525,-20,-13,-4,
472,6,2,2023,12,7,7,614,-1324,-1522,3527,-24,-5,-3,
473,6,2,2023,12,7,7,624,-1336,-1526,3521,-25,0,2,
474,6,2,2023,12,7,7,634,-1344,-1517,3531,-21,7,6,
475,6,2,2023,12,7,7,644,-1335,-1533,3530,-30,7,5,
476,6,2,2023,12,7,7,654,-1337,-1516,3525,-32,12,9,
477,6,2,2023,12,7,7,664,-1341,-1531,3521,-33,10,9,
478,6,2,2023,12,7,7,674,-1341,-1538,3518,-28,7,7,
479,6,2,2023,12,7,7,684,-1340,-1537,3515,-21,2,6,
480,6,2,2023,12,7,7,694,-1341,-1528,3524,-17,-2,10,
481,6,2,2023,12,7,7,704,-1343,-1533,3522,-22,-5,8,
482,6,2,2023,12,7,7,714,-1329,-1538,3516,-22,-9,7,
483,6,2,2023,12,7,7,724,-1338,-1527,3523,-13,-5,13,
484,6,2,2023,12,7,7,734,-1337,-1520,3526,-15,-2,17,
485,6,2,2023,12,7,7,744,-1328,-1522,3532,-18,-3,19,
486,6,2,2023,12,7,7,754,-1338,-1527,3527,-15,4,16,
487,6,2,2023,12,7,7,764,-1340,-1536,3523,-24,6,14,
488,6,2,2023,12,7,7,774,-1341,-1533,3528,-16,7,17,
489,6,2,2023,12,7,7,784,-1344,-1531,3522,-18,11,20,
490,6,2,2023,12,7,7,794,-1340,-1537,3516,-14,9,19,
491,6,2,2023,12,7,7,804,-1344,-1533,3516,-5,4,19,
492,6,2,2023,12,7,7,814,-1347,-1522,3521,-3,0,16,
493,6,2,2023,12,7,7,824,-1344,-1527,3526,-2,0,14,
494,6,2,2023,12,7,7,834,-1338,-1542,3520,-7,-5,12,
495,6,2,2023,12,7,7,844,-1350,-1530,3523,2,-5,15,
496,6,2,2023,12,7,7,854,-1345,-1533,3519,-1,-10,15,
497,6,2,2023,12,7,7,864,-1344,-1530,3525,-3,-10,9,
498,6,2,2023,12,7,7,874,-1342,-1520,3520,3,-11,10,
499,6,2,2023,12,7,7,884,-1339,-1530,3512,-9,-8,11,
500,6,2,2023,12,7,7,894,-1345,-1522,3534,-7,-11,13,
501,6,2,2023,12,7,7,904,-1333,-1525,3524,-10,-9,11,
502,6,2,2023,12,7,7,914,-1335,-1518,3527,-14,-6,8,
503,6,2,2023,12,7,7,924,-1337,-1527,3516,-16,-1,12,
504,6,2,2023,12,7,7,934,-1334,-1534,3521,-12,5,18,
505,6,2,2023,12,7,7,944,-1339,-1531,3524,-9,8,13,
506,6,2,2023,12,7,7,954,-1344,-1524,3519,-15,8,12,
507,6,2,2023,12,7,7,964,-1350,-1519,3518,-13,8,16,
508,6,2,2023,12,7,7,974,-1348,-1536,3509,-13,3,14,
509,6,2,2023,12,7,7,984,-1342,-1530,3526,-8,-7,12,
510,6,2,2023,12,7,7,994,-1342,-1536,3522,-5,-7,13,
511,6,2,2023,12,7,8,14,-1336,-1527,3531,-6,-11,10,
512,6,2,2023,12,7,8,24,-1338,-1529,3527,-7,-13,11,
513,6,2,2023,12,7,8,34,-1353,-1530,3523,-5,-12,9,
514,6,2,2023,12,7,8,44,-1344,-1530,3522,-3,-15,9,
515,6,2,2023,12,7,8,54,-1345,-1524,3517,3,-21,6,
516,6,2,2023,12,7,8,64,-1341,-1521,3523,3,-21,2,
517,6,2,2023,12,7,8,74,-1335,-1521,3524,3,-17,2,
518,6,2,2023,12,7,8,84,-1328,-1530,3524,1,-15,6,
519,6,2,2023,12,7,8,94,-1339,-1526,3528,2,-6,11,
520,6,2,2023,12,7,8,104,-1335,-1532,3519,-3,-2,16,
521,6,2,2023,12,7,8,114,-1338,-1524,3528,-7,3,18,
522,6,2,2023,12,7,8,124,-1350,-1525,3528,-10,9,20,
523,6,2,2023,12,7,8,134,-1339,-1532,3526,-10,9,21,
524,6,2,2023,12,7,8,144,-1345,-1530,3522,-12,13,22,
525,6,2,2023,12,7,8,154,-1346,-1525,3526,-16,14,24,
526,6,2,2023,12,7,8,164,-1345,-1541,3519,-15,12,24,
527,6,2,2023,12,7,8,174,-1351,-1527,3524,-3,10,22,
528,6,2,2023,12,7,8,184,-1345,-1528,3514,-2,4,22,
529,6,2,2023,12,7,8,194,-1354,-1518,3523,-1,5,17,
530,6,2,2023,12,7,8,204,-1351,-1521,3531,-6,3,17,
531,6,2,2023,12,7,8,214,-1340,-1530,3520,-4,-1,14,
532,6,2,2023,12,7,8,224,-1352,-1531,3519,4,-1,12,
533,6,2,2023,12,7,8,234,-1353,-1533,3514,2,0,11,
534,6,2,2023,12,7,8,244,-1347,-1522,3527,8,-2,8,
535,6,2,2023,12,7,8,254,-1358,-1526,3526,0,-3,10,
536,6,2,2023,12,7,8,264,-1352,-1520,3533,12,-16,7,
537,6,2,2023,12,7,8,274,-1346,-1521,3518,10,-14,9,
538,6,2,2023,12,7,8,284,-1348,-1510,3522,0,-9,12,
539,6,2,2023,12,7,8,294,-1348,-1528,3526,-16,-4,11,
540,6,2,2023,12,7,8,304,-1347,-1524,3525,-19,0,13,
541,6,2,2023,12,7,8,314,-1347,-1522,3516,-22,1,12,
542,6,2,2023,12,7,8,324,-1351,-1523,3512,-21,3,11,
543,6,2,2023,12,7,8,334,-1353,-1525,3521,-17,5,15,
544,6,2,2023,12,7,8,344,-1352,-1524,3516,-23,2,14,
545,6,2,2023,12,7,8,354,-1345,-1526,3523,-24,-1,10,
546,6,2,2023,12,7,8,364,-1346,-1524,3524,-21,0,9,
547,6,2,2023,12,7,8,374,-1345,-1527,3521,-25,5,9,
548,6,2,2023,12,7,8,384,-1353,-1536,3512,-22,1,9,
549,6,2,2023,12,7,8,394,-1352,-1525,3516,-19,1,11,
550,6,2,2023,12,7,8,404,-1349,-1526,3514,-26,3,10,
551,6,2,2023,12,7,8,414,-1355,-1520,3521,-28,4,9,
552,6,2,2023,12,7,8,424,-1359,-1529,3514,-27,1,9,
553,6,2,2023,12,7,8,434,-1357,-1522,3517,-30,-2,8,
554,6,2,2023,12,7,8,444,-1354,-1518,3526,-29,-3,6,
555,6,2,2023,12,7,8,454,-1355,-1535,3522,-33,-7,3,
556,6,2,2023,12,7,8,464,-1351,-1526,3523,-36,-9,-1,
557,6,2,2023,12,7,8,474,-1345,-1544,3509,-44,-4,2,
558,6,2,2023,12,7,8,484,-1341,-1541,3517,-47,2,4,
559,6,2,2023,12,7,8,494,-1346,-1536,3521,-40,1,7,
560,6,2,2023,12,7,8,504,-1346,-1534,3513,-33,5,7,
561,6,2,2023,12,7,8,514,-1350,-1527,3523,-27,14,9,
562,6,2,2023,12,7,8,524,-1347,-1533,3519,-24,14,9,
563,6,2,2023,12,7,8,534,-1352,-1530,3520,-27,16,10,
564,6,2,2023,12,7,8,544,-1354,-1535,3516,-26,21,11,
565,6,2,2023,12,7,8,554,-1353,-1540,3502,-23,20,12,
566,6,2,2023,12,7,8,564,-1361,-1542,3512,-19,18,11,
567,6,2,2023,12,7,8,574,-1359,-1537,3506,-12,13,7,
568,6,2,2023,12,7,8,584,-1353,-1535,3507,-12,3,7,
569,6,2,2023,12,7,8,594,-1357,-1539,3500,-15,0,7,
570,6,2,2023,12,7,8,604,-1360,-1532,3517,-12,-5,7,
571,6,2,2023,12,7,8,614,-1365,-1543,3514,-11,-9,4,
572,6,2,2023,12,7,8,624,-1355,-1530,3515,-6,-10,2,
573,6,2,2023,12,7,8,634,-1358,-1532,3526,-5,-22,0,
574,6,2,2023,12,7,8,644,-1360,-1534,3512,1,-23,-2,
575,6,2,2023,12,7,8,654,-1353,-1547,3497,1,-25,-2,
576,6,2,2023,12,7,8,664,-1352,-1528,3518,5,-23,0,
577,6,2,2023,12,7,8,674,-1357,-1526,3521,-1,-22,-2,
578,6,2,2023,12,7,8,684,-1356,-1526,3523,-7,-22,-1,
579,6,2,2023,12,7,8,694,-1356,-1537,3515,-6,-20,-3,
580,6,2,2023,12,7,8,704,-1355,-1537,3514,-5,-19,-4,
581,6,2,2023,12,7,8,714,-1344,-1537,3515,-4,-16,-4,
582,6,2,2023,12,7,8,724,-1356,-1534,3517,2,-16,0,
583,6,2,2023,12,7,8,734,-1359,-1533,3513,-1,-22,-2,
584,6,2,2023,12,7,8,744,-1352,-1524,3519,-6,-23,-3,
585,6,2,2023,12,7,8,754,-1357,-1524,3517,-2,-24,-3,
586,6,2,2023,12,7,8,764,-1354,-1534,3513,-7,-24,-9,
587,6,2,2023,12,7,8,774,-1341,-1534,3512,-3,-27,-6,
588,6,2,2023,12,7,8,784,-1352,-1531,3512,-2,-28,-5,
589,6,2,2023,12,7,8,794,-1354,-1538,3508,0,-25,-2,
590,6,2,2023,12,7,8,804,-1356,-1539,3511,0,-23,-5,
591,6,2,2023,12,7,8,814,-1343,-1530,3512,1,-24,-4,
592,6,2,2023,12,7,8,824,-1342,-1530,3517,1,-22,0,
593,6,2,2023,12,7,8,834,-1342,-1527,3518,2,-21,-6,
594,6,2,2023,12,7,8,844,-1353,-1530,3520,-1,-16,-3,
595,6,2,2023,12,7,8,854,-1351,-1527,3522,-3,-18,-2,
596,6,2,2023,12,7,8,874,-1345,-1529,3511,-2,-15,-2,
597,6,2,2023,12,7,8,884,-1347,-1536,3514,-2,-15,-3,
598,6,2,2023,12,7,8,894,-1341,-1533,3518,-4,-16,-2,
599,6,2,2023,12,7,8,904,-1346,-1535,3516,-3,-16,3,
600,6,2,2023,12,7,8,914,-1350,-1535,3526,-6,-15,-2,
601,6,2,2023,12,7,8,924,-1353,-1530,3525,-7,-12,-2,
602,6,2,2023,12,7,8,934,-1350,-1530,3517,-10,-14,0,
603,6,2,2023,12,7,8,944,-1350,-1530,3518,-8,-13,0,
604,6,2,2023,12,7,8,954,-1345,-1537,3520,-11,-11,0,
605,6,2,2023,12,7,8,964,-1348,-1536,3516,-6,-12,-3,
606,6,2,2023,12,7,8,974,-1342,-1540,3512,-5,-9,1,
607,6,2,2023,12,7,8,984,-1347,-1530,3522,-3,-11,2,
608,6,2,2023,12,7,8,994,-1349,-1540,3512,-4,-12,1,
609,6,2,2023,12,7,9,4,-1348,-1531,3514,-3,-13,-1,
610,6,2,2023,12,7,9,14,-1348,-1544,3509,-6,-11,0,
611,6,2,2023,12,7,9,24,-1352,-1530,3521,-5,-9,-4,
612,6,2,2023,12,7,9,34,-1350,-1528,3523,-7,-12,-3,
613,6,2,2023,12,7,9,44,-1342,-1531,3519,-4,-16,-2,
614,6,2,2023,12,7,9,54,-1350,-1528,3521,-2,-15,-4,
615,6,2,2023,12,7,9,64,-1348,-1536,3520,-1,-15,-4,
616,6,2,2023,12,7,9,74,-1342,-1542,3521,1,-15,-2,
617,6,2,2023,12,7,9,84,-1356,-1529,3517,0,-18,-2,
618,6,2,2023,12,7,9,94,-1328,-1544,3517,-10,-20,-2,
619,6,2,2023,12,7,9,104,-1338,-1537,3521,7,-13,-1,
620,6,2,2023,12,7,9,114,-1351,-1523,3520,7,-11,-6,
621,6,2,2023,12,7,9,124,-1344,-1526,3529,-2,-13,-5,
622,6,2,2023,12,7,9,134,-1346,-1531,3525,-4,-13,-5,
623,6,2,2023,12,7,9,144,-1347,-1534,3524,-7,-14,-5,
624,6,2,2023,12,7,9,154,-1349,-1532,3519,-7,-20,-10,
625,6,2,2023,12,7,9,164,-1344,-1518,3525,-6,-20,-10,
626,6,2,2023,12,7,9,174,-1348,-1539,3519,-8,-23,-11,
627,6,2,2023,12,7,9,184,-1342,-1532,3520,-4,-27,-11,
628,6,2,2023,12,7,9,194,-1333,-1530,3520,-7,-27,-11,
629,6,2,2023,12,7,9,204,-1342,-1534,3508,-6,-28,-10,
630,6,2,2023,12,7,9,214,-1340,-1536,3510,-9,-29,-8,
631,6,2,2023,12,7,9,224,-1342,-1528,3514,-8,-22,-6,
632,6,2,2023,12,7,9,234,-1339,-1540,3511,-10,-19,-1,
633,6,2,2023,12,7,9,244,-1330,-1539,3522,-12,-18,0,
634,6,2,2023,12,7,9,254,-1336,-1537,3517,-14,-12,-1,
635,6,2,2023,12,7,9,264,-1334,-1535,3513,-14,-13,4,
636,6,2,2023,12,7,9,274,-1338,-1530,3523,-11,-11,9,
637,6,2,2023,12,7,9,284,-1339,-1537,3523,-11,-5,9,
638,6,2,2023,12,7,9,294,-1336,-1533,3517,-10,-4,10,
639,6,2,2023,12,7,9,304,-1338,-1534,3519,-8,-4,9,
640,6,2,2023,12,7,9,314,-1341,-1534,3517,-5,-7,8,
641,6,2,2023,12,7,9,324,-1333,-1531,3521,-3,-6,7,
642,6,2,2023,12,7,9,334,-1340,-1531,3519,-2,-1,9,
643,6,2,2023,12,7,9,344,-1342,-1533,3522,-2,-2,8,
644,6,2,2023,12,7,9,354,-1335,-1535,3522,-7,-4,9,
645,6,2,2023,12,7,9,364,-1333,-1534,3517,-6,-6,6,
646,6,2,2023,12,7,9,374,-1337,-1543,3516,-2,-9,8,
647,6,2,2023,12,7,9,384,-1340,-1533,3518,1,-11,11,
648,6,2,2023,12,7,9,394,-1343,-1539,3519,-1,-10,8,
649,6,2,2023,12,7,9,404,-1343,-1529,3532,-2,-11,4,
650,6,2,2023,12,7,9,414,-1337,-1532,3526,1,-8,6,
651,6,2,2023,12,7,9,424,-1332,-1538,3522,-1,-7,7,
652,6,2,2023,12,7,9,434,-1328,-1535,3518,-2,-6,6,
653,6,2,2023,12,7,9,444,-1327,-1539,3509,1,-5,5,
654,6,2,2023,12,7,9,454,-1338,-1534,3527,1,-2,9,
655,6,2,2023,12,7,9,464,-1340,-1536,3519,1,0,10,
656,6,2,2023,12,7,9,474,-1339,-1530,3519,-1,2,11,
657,6,2,2023,12,7,9,484,-1341,-1538,3522,-4,2,10,
658,6,2,2023,12,7,9,494,-1347,-1537,3510,-5,-3,10,
659,6,2,2023,12,7,9,504,-1344,-1534,3512,-7,1,10,
660,6,2,2023,12,7,9,514,-1344,-1538,3523,-6,0,10,
661,6,2,2023,12,7,9,524,-1345,-1528,3516,-6,-1,8,
662,6,2,2023,12,7,9,534,-1344,-1532,3522,-7,-3,11,
663,6,2,2023,12,7,9,544,-1344,-1531,3527,-9,-3,10,
664,6,2,2023,12,7,9,554,-1338,-1529,3529,-13,3,11,
665,6,2,2023,12,7,9,564,-1338,-1531,3522,-15,1,11,
666,6,2,2023,12,7,9,574,-1346,-1531,3523,-15,2,10,
667,6,2,2023,12,7,9,584,-1339,-1529,3518,-18,2,5,
668,6,2,2023,12,7,9,594,-1337,-1534,3518,-14,3,7,
669,6,2,2023,12,7,9,604,-1339,-1528,3522,-12,2,7,
670,6,2,2023,12,7,9,614,-1341,-1529,3518,-16,0,5,
671,6,2,2023,12,7,9,624,-1341,-1532,3520,-16,-3,9,
672,6,2,2023,12,7,9,634,-1338,-1525,3521,-15,-5,7,
673,6,2,2023,12,7,9,644,-1356,-1534,3518,-16,0,4,
674,6,2,2023,12,7,9,654,-1349,-1531,3511,-17,-1,3,
675,6,2,2023,12,7,9,664,-1343,-1536,3516,-17,-7,6,
676,6,2,2023,12,7,9,674,-1347,-1539,3518,-14,-10,4,
677,6,2,2023,12,7,9,684,-1345,-1528,3519,-10,-9,-1,
678,6,2,2023,12,7,9,694,-1337,-1530,3520,-13,-10,3,
679,6,2,2023,12,7,9,704,-1345,-1535,3518,-13,-9,2,
680,6,2,2023,12,7,9,714,-1350,-1542,3518,-11,-10,1,
681,6,2,2023,12,7,9,734,-1343,-1529,3520,-11,-14,4,
682,6,2,2023,12,7,9,744,-1350,-1538,3518,-7,-10,2,
683,6,2,2023,12,7,9,754,-1350,-1542,3521,-8,-11,4,
684,6,2,2023,12,7,9,764,-1340,-1536,3514,-7,-9,2,
685,6,2,2023,12,7,9,774,-1345,-1539,3520,-5,-10,3,
686,6,2,2023,12,7,9,784,-1351,-1538,3524,-8,-8,0,
687,6,2,2023,12,7,9,794,-1339,-1533,3514,-7,-8,3,
688,6,2,2023,12,7,9,804,-1345,-1542,3516,-5,-9,0,
689,6,2,2023,12,7,9,814,-1344,-1534,3523,-2,-11,2,
690,6,2,2023,12,7,9,824,-1343,-1527,3522,-2,-9,3,
691,6,2,2023,12,7,9,834,-1340,-1532,3519,-2,-11,2,
692,6,2,2023,12,7,9,844,-1345,-1528,3525,1,-10,-1,
693,6,2,2023,12,7,9,854,-1347,-1535,3521,0,-11,2,
694,6,2,2023,12,7,9,864,-1345,-1533,3520,-2,-10,0,
695,6,2,2023,12,7,9,874,-1340,-1534,3516,-4,-6,0,
696,6,2,2023,12,7,9,884,-1341,-1534,3509,-1,-11,3,
697,6,2,2023,12,7,9,894,-1334,-1536,3506,-2,-12,6,
698,6,2,2023,12,7,9,904,-1326,-1533,3518,13,-12,4,
699,6,2,2023,12,7,9,914,-1342,-1545,3513,20,-7,6,
700,6,2,2023,12,7,9,924,-1355,-1553,3509,23,-7,7,
701,6,2,2023,12,7,9,934,-1341,-1535,3516,29,-13,10,
702,6,2,2023,12,7,9,944,-1345,-1526,3520,26,-11,11,
703,6,2,2023,12,7,9,954,-1337,-1535,3523,20,-15,15,
704,6,2,2023,12,7,9,964,-1337,-1520,3522,20,-9,12,
705,6,2,2023,12,7,9,974,-1335,-1530,3521,18,-6,11,
706,6,2,2023,12,7,9,984,-1337,-1514,3532,18,-2,16,
707,6,2,2023,12,7,9,994,-1348,-1529,3520,12,1,14,
708,6,2,2023,12,7,10,4,-1342,-1520,3515,9,1,12,
709,6,2,2023,12,7,10,14,-1348,-1523,3520,9,-1,12,
710,6,2,2023,12,7,10,24,-1343,-1524,3524,9,2,12,
711,6,2,2023,12,7,10,34,-1347,-1523,3526,8,2,13,
712,6,2,2023,12,7,10,44,-1354,-1527,3525,2,-1,11,
713,6,2,2023,12,7,10,54,-1350,-1527,3523,-5,1,6,
714,6,2,2023,12,7,10,64,-1346,-1527,3518,-6,0,9,
715,6,2,2023,12,7,10,74,-1346,-1523,3522,-10,0,7,
716,6,2,2023,12,7,10,84,-1342,-1530,3527,-10,-4,7,
717,6,2,2023,12,7,10,94,-1344,-1525,3529,-10,-5,9,
718,6,2,2023,12,7,10,104,-1345,-1527,3521,-9,-8,5,
719,6,2,2023,12,7,10,114,-1343,-1524,3521,-9,-7,5,
720,6,2,2023,12,7,10,124,-1349,-1526,3523,-13,-3,6,
721,6,2,2023,12,7,10,134,-1349,-1529,3526,-13,-4,6,
722,6,2,2023,12,7,10,144,-1342,-1535,3522,-9,-5,7,
723,6,2,2023,12,7,10,154,-1341,-1538,3514,-10,-4,7,
724,6,2,2023,12,7,10,164,-1352,-1525,3521,-7,-4,6,
725,6,2,2023,12,7,10,174,-1336,-1530,3520,-3,-4,6,
726,6,2,2023,12,7,10,184,-1348,-1529,3520,-2,-3,7,
727,6,2,2023,12,7,10,194,-1351,-1531,3517,-5,-5,7,
728,6,2,2023,12,7,10,204,-1340,-1528,3520,-6,-6,7,
729,6,2,2023,12,7,10,214,-1344,-1524,3530,-1,-7,10,
730,6,2,2023,12,7,10,224,-1347,-1531,3518,0,-6,5,
731,6,2,2023,12,7,10,234,-1345,-1521,3525,2,-4,7,
732,6,2,2023,12,7,10,244,-1351,-1527,3521,-5,-6,8,
733,6,2,2023,12,7,10,254,-1344,-1522,3523,-4,-2,4,
734,6,2,2023,12,7,10,264,-1337,-1527,3526,-3,-7,6,
735,6,2,2023,12,7,10,274,-1342,-1523,3529,-8,-8,4,
736,6,2,2023,12,7,10,284,-1349,-1525,3520,-10,-7,3,
737,6,2,2023,12,7,10,294,-1346,-1524,3519,-11,-6,5,
738,6,2,2023,12,7,10,304,-1350,-1521,3524,-10,-7,7,
739,6,2,2023,12,7,10,314,-1341,-1527,3522,-10,-6,4,
740,6,2,2023,12,7,10,324,-1342,-1530,3520,-5,-7,0,
741,6,2,2023,12,7,10,334,-1343,-1523,3521,-2,-8,4,
742,6,2,2023,12,7,10,344,-1347,-1525,3525,1,-3,6,
743,6,2,2023,12,7,10,354,-1352,-1530,3520,2,1,5,
744,6,2,2023,12,7,10,364,-1343,-1525,3528,-3,2,6,
745,6,2,2023,12,7,10,374,-1350,-1526,3527,0,2,8,
746,6,2,2023,12,7,10,384,-1355,-1523,3533,2,0,5,
747,6,2,2023,12,7,10,394,-1348,-1527,3521,-5,-2,5,
748,6,2,2023,12,7,10,404,-1346,-1527,3523,-3,-2,4,
749,6,2,2023,12,7,10,414,-1350,-1532,3519,-7,2,4,
750,6,2,2023,12,7,10,424,-1346,-1525,3523,-6,3,2,
751,6,2,2023,12,7,10,434,-1346,-1530,3522,-3,-2,4,
752,6,2,2023,12,7,10,444,-1344,-1528,3527,-5,-6,4,
753,6,2,2023,12,7,10,454,-1349,-1527,3517,-8,-6,6,
754,6,2,2023,12,7,10,464,-1347,-1523,3523,-8,-4,4,
755,6,2,2023,12,7,10,474,-1341,-1520,3518,-8,-4,4,
756,6,2,2023,12,7,10,484,-1353,-1523,3519,-8,-6,6,
757,6,2,2023,12,7,10,494,-1354,-1532,3514,-10,-4,1,
758,6,2,2023,12,7,10,504,-1352,-1532,3518,-7,-10,2,
759,6,2,2023,12,7,10,514,-1347,-1527,3523,-5,-10,5,
760,6,2,2023,12,7,10,524,-1343,-1524,3520,-4,-9,5,
761,6,2,2023,12,7,10,534,-1352,-1523,3520,-4,-8,3,
762,6,2,2023,12,7,10,544,-1347,-1527,3523,-3,-8,7,
763,6,2,2023,12,7,10,554,-1346,-1526,3522,-2,-9,4,
764,6,2,2023,12,7,10,564,-1343,-1527,3522,0,-9,5,
765,6,2,2023,12,7,10,574,-1342,-1530,3516,0,-8,8,
766,6,2,2023,12,7,10,594,-1342,-1524,3528,0,-8,8,
767,6,2,2023,12,7,10,604,-1347,-1525,3518,-1,-3,10,
768,6,2,2023,12,7,10,614,-1347,-1520,3523,-4,-2,11,
769,6,2,2023,12,7,10,624,-1345,-1525,3521,-6,-2,13,
770,6,2,2023,12,7,10,634,-1343,-1524,3520,-9,0,10,
771,6,2,2023,12,7,10,644,-1349,-1523,3516,-5,1,8,
772,6,2,2023,12,7,10,654,-1352,-1524,3522,-3,-2,11,
773,6,2,2023,12,7,10,664,-1350,-1536,3513,-6,-4,12,
774,6,2,2023,12,7,10,674,-1346,-1526,3527,-5,-8,13,
775,6,2,2023,12,7,10,684,-1349,-1523,3527,-6,-7,10,
776,6,2,2023,12,7,10,694,-1347,-1527,3526,-3,-11,16,
777,6,2,2023,12,7,10,704,-1348,-1526,3523,0,-8,16,
778,6,2,2023,12,7,10,714,-1349,-1515,3519,-4,-4,12,
779,6,2,2023,12,7,10,724,-1344,-1515,3521,-5,-5,8,
780,6,2,2023,12,7,10,734,-1344,-1522,3521,-9,-5,11,
781,6,2,2023,12,7,10,744,-1352,-1525,3520,-8,-2,12,
782,6,2,2023,12,7,10,754,-1352,-1528,3519,-4,-3,9,
783,6,2,2023,12,7,10,764,-1349,-1528,3521,-11,-10,7,
784,6,2,2023,12,7,10,774,-1352,-1525,3517,-1,-8,5,
785,6,2,2023,12,7,10,784,-1352,-1527,3526,3,-7,8,
786,6,2,2023,12,7,10,794,-1350,-1521,3524,2,-7,6,
787,6,2,2023,12,7,10,804,-1349,-1521,3527,2,-9,8,
788,6,2,2023,12,7,10,814,-1344,-1527,3513,-1,-9,8,
789,6,2,2023,12,7,10,824,-1353,-1511,3519,-2,-6,6,
790,6,2,2023,12,7,10,834,-1354,-1529,3520,-5,-9,4,
791,6,2,2023,12,7,10,844,-1347,-1523,3521,0,-13,6,
792,6,2,2023,12,7,10,854,-1349,-1513,3526,-2,-6,2,
793,6,2,2023,12,7,10,864,-1344,-1519,3516,-6,-9,3,
794,6,2,2023,12,7,10,874,-1354,-1522,3520,-8,-7,7,
795,6,2,2023,12,7,10,884,-1350,-1517,3534,-11,-8,4,
796,6,2,2023,12,7,10,894,-1348,-1515,3522,-14,-5,2,
797,6,2,2023,12,7,10,904,-1347,-1525,3520,-15,-5,1,
798,6,2,2023,12,7,10,914,-1347,-1527,3523,-16,-5,3,
799,6,2,2023,12,7,10,924,-1350,-1518,3526,-14,-7,2,
800,6,2,2023,12,7,10,934,-1354,-1532,3519,-12,-11,1,
801,6,2,2023,12,7,10,944,-1351,-1524,3520,-16,-9,-1,
802,6,2,2023,12,7,10,954,-1347,-1524,3525,-17,-9,1,
803,6,2,2023,12,7,10,964,-1353,-1520,3526,-17,-11,1,
804,6,2,2023,12,7,10,974,-1353,-1523,3524,-22,-7,1,
805,6,2,2023,12,7,10,984,-1352,-1526,3526,-17,-5,0,
806,6,2,2023,12,7,10,994,-1350,-1535,3523,-19,-8,-1,
807,6,2,2023,12,7,11,4,-1357,-1523,3521,-23,-5,2,
808,6,2,2023,12,7,11,14,-1349,-1522,3530,-20,-6,3,
809,6,2,2023,12,7,11,24,-1351,-1531,3519,-26,-6,-2,
810,6,2,2023,12,7,11,34,-1349,-1522,3523,-21,-5,-2,
811,6,2,2023,12,7,11,44,-1348,-1531,3524,-25,-4,2,
812,6,2,2023,12,7,11,54,-1344,-1531,3526,-26,0,2,
813,6,2,2023,12,7,11,64,-1350,-1527,3521,-25,0,0,
814,6,2,2023,12,7,11,74,-1354,-1529,3519,-27,0,-1,
815,6,2,2023,12,7,11,84,-1347,-1534,3516,-29,-2,0,
816,6,2,2023,12,7,11,94,-1346,-1531,3520,-26,-2,1,
817,6,2,2023,12,7,11,104,-1345,-1532,3515,-22,0,4,
818,6,2,2023,12,7,11,114,-1352,-1530,3520,-25,1,1,
819,6,2,2023,12,7,11,124,-1348,-1540,3519,-30,2,0,
820,6,2,2023,12,7,11,134,-1355,-1535,3523,-28,4,2,
821,6,2,2023,12,7,11,144,-1353,-1523,3528,-33,0,1,
822,6,2,2023,12,7,11,154,-1353,-1541,3506,-33,-1,-1,
823,6,2,2023,12,7,11,164,-1352,-1520,3523,-23,-2,-2,
824,6,2,2023,12,7,11,174,-1351,-1545,3515,-24,-5,-2,
825,6,2,2023,12,7,11,184,-1352,-1521,3529,-21,-8,-5,
826,6,2,2023,12,7,11,194,-1350,-1544,3512,-27,-8,-9,
827,6,2,2023,12,7,11,204,-1350,-1533,3528,-24,-11,-6,
828,6,2,2023,12,7,11,214,-1353,-1548,3525,-26,-12,-10,
829,6,2,2023,12,7,11,224,-1362,-1531,3531,-28,-14,-12,
830,6,2,2023,12,7,11,234,-1359,-1563,3528,-34,-22,-14,
831,6,2,2023,12,7,11,244,-1364,-1549,3534,-24,-26,-20,
832,6,2,2023,12,7,11,254,-1351,-1567,3519,-16,-33,-22,
833,6,2,2023,12,7,11,264,-1353,-1573,3518,12,-36,-25,
834,6,2,2023,12,7,11,274,-1355,-1579,3514,37,-45,-31,
835,6,2,2023,12,7,11,284,-1346,-1576,3484,57,-53,-32,
836,6,2,2023,12,7,11,294,-1371,-1533,3533,68,-44,-24,
837,6,2,2023,12,7,11,304,-1359,-1558,3509,65,-66,-26,
838,6,2,2023,12,7,11,314,-1353,-1516,3525,75,-91,-29,
839,6,2,2023,12,7,11,324,-1338,-1502,3522,64,-107,-33,
840,6,2,2023,12,7,11,334,-1336,-1480,3539,56,-107,-35,
841,6,2,2023,12,7,11,344,-1310,-1501,3491,29,-100,-23,
842,6,2,2023,12,7,11,354,-1348,-1535,3527,26,-75,-27,
843,6,2,2023,12,7,11,364,-1292,-1478,3523,43,-58,-42,
844,6,2,2023,12,7,11,374,-1324,-1545,3512,14,-60,-25,
845,6,2,2023,12,7,11,384,-1297,-1495,3493,42,-64,-28,
846,6,2,2023,12,7,11,394,-1323,-1540,3535,29,-32,-19,
847,6,2,2023,12,7,11,404,-1331,-1523,3540,36,-36,-17,
848,6,2,2023,12,7,11,414,-1322,-1504,3534,39,-35,-28,
849,6,2,2023,12,7,11,424,-1318,-1517,3504,10,-40,-19,
850,6,2,2023,12,7,11,434,-1312,-1555,3472,-7,-33,-7,
851,6,2,2023,12,7,11,454,-1321,-1517,3507,41,-35,-14,
852,6,2,2023,12,7,11,464,-1311,-1549,3507,62,-39,-9,
853,6,2,2023,12,7,11,474,-1340,-1526,3528,81,-35,-11,
854,6,2,2023,12,7,11,484,-1321,-1489,3545,68,-42,-18,
855,6,2,2023,12,7,11,494,-1321,-1511,3520,55,-42,-9,
856,6,2,2023,12,7,11,504,-1337,-1522,3508,51,-24,-10,
857,6,2,2023,12,7,11,514,-1325,-1517,3493,27,4,-25,
858,6,2,2023,12,7,11,524,-1324,-1518,3553,18,16,-21,
859,6,2,2023,12,7,11,534,-1340,-1564,3500,40,-21,-20,
860,6,2,2023,12,7,11,544,-1285,-1458,3567,81,-21,-48,
861,6,2,2023,12,7,11,554,-1318,-1492,3522,45,-31,-28,
862,6,2,2023,12,7,11,564,-1291,-1502,3535,94,-13,-36,
863,6,2,2023,12,7,11,574,-1323,-1486,3542,90,-4,-37,
864,6,2,2023,12,7,11,584,-1325,-1496,3532,70,1,-39,
865,6,2,2023,12,7,11,594,-1324,-1525,3490,86,-1,-42,
866,6,2,2023,12,7,11,604,-1324,-1456,3517,38,-10,-51,
867,6,2,2023,12,7,11,614,-1317,-1568,3499,-32,-29,-68,
868,6,2,2023,12,7,11,624,-1477,-2411,3113,446,224,-530,
869,6,2,2023,12,7,11,634,-1115,-1632,3551,643,583,-1366,
870,6,2,2023,12,7,11,644,-1489,-316,4124,504,522,-1053,
871,6,2,2023,12,7,11,654,-1302,-1466,3583,-143,-15,-124,
872,6,2,2023,12,7,11,664,-1382,-1567,3434,-27,-20,-139,
873,6,2,2023,12,7,11,674,-1309,-1577,3455,9,69,-453,
874,6,2,2023,12,7,11,684,-1209,-1396,3711,108,144,-492,
875,6,2,2023,12,7,11,694,-1318,-1496,3551,-59,-19,-49,
876,6,2,2023,12,7,11,704,-1265,-1474,3553,-308,-126,8,
877,6,2,2023,12,7,11,714,-1424,-1709,3453,-843,-291,92,
878,6,2,2023,12,7,11,724,-1255,-1493,3574,136,-37,-66,
879,6,2,2023,12,7,11,734,-1335,-1623,3483,-146,-115,-15,
880,6,2,2023,12,7,11,744,-1268,-1523,3563,36,-78,-43,
881,6,2,2023,12,7,11,754,-1294,-1602,3509,-83,-97,-21,
882,6,2,2023,12,7,11,764,-1308,-1865,3422,-1,-65,-47,
883,6,2,2023,12,7,11,774,-1285,-1732,3455,367,183,-438,
884,6,2,2023,12,7,11,784,-1337,-977,3824,330,204,-462,
885,6,2,2023,12,7,11,794,-1255,-1557,3524,-40,-77,-5,
886,6,2,2023,12,7,11,804,-1281,-1557,3511,39,-68,32,
887,6,2,2023,12,7,11,814,-1262,-1506,3543,32,-41,3,
888,6,2,2023,12,7,11,824,-1267,-1503,3573,20,-19,23,
889,6,2,2023,12,7,11,834,-1253,-1510,3558,5,7,32,
890,6,2,2023,12,7,11,844,-1275,-1479,3570,24,44,41,
891,6,2,2023,12,7,11,854,-1297,-1465,3581,-2,57,48,
892,6,2,2023,12,7,11,864,-1299,-1474,3575,-46,56,49,
893,6,2,2023,12,7,11,874,-1307,-1443,3558,-69,59,46,
894,6,2,2023,12,7,11,884,-1251,-1560,3521,-127,71,52,
895,6,2,2023,12,7,11,894,-1315,-1480,3562,-67,100,52,
896,6,2,2023,12,7,11,904,-1302,-1509,3544,-117,88,55,
897,6,2,2023,12,7,11,914,-1321,-1517,3534,-107,102,60,
898,6,2,2023,12,7,11,924,-1299,-1557,3523,-152,99,61,
899,6,2,2023,12,7,11,934,-1335,-1552,3520,-118,111,67,
900,6,2,2023,12,7,11,944,-1344,-1544,3546,-138,84,65,
901,6,2,2023,12,7,11,954,-1344,-1541,3522,-138,66,61,
902,6,2,2023,12,7,11,964,-1329,-1544,3542,-169,37,59,
903,6,2,2023,12,7,11,974,-1337,-1568,3520,-126,49,49,
904,6,2,2023,12,7,11,984,-1341,-1526,3546,-123,30,36,
905,6,2,2023,12,7,11,994,-1323,-1556,3524,-135,9,37,
906,6,2,2023,12,7,12,4,-1343,-1524,3536,-139,-3,30,
907,6,2,2023,12,7,12,14,-1306,-1613,3485,-185,1,35,
908,6,2,2023,12,7,12,24,-1328,-1525,3535,-126,19,36,
909,6,2,2023,12,7,12,34,-1321,-1584,3529,-180,5,40,
910,6,2,2023,12,7,12,44,-1293,-1528,3570,-150,20,41,
911,6,2,2023,12,7,12,54,-1390,-1517,3521,-133,29,24,
912,6,2,2023,12,7,12,64,-1318,-1712,3452,-206,-12,19,
913,6,2,2023,12,7,12,74,-1285,-1564,3560,-8,-2,19,
914,6,2,2023,12,7,12,84,-1394,-1582,3493,142,-24,26,
915,6,2,2023,12,7,12,94,-1323,-1631,3482,62,-101,41,
916,6,2,2023,12,7,12,104,-1349,-1612,3490,159,-148,52,
917,6,2,2023,12,7,12,114,-1332,-1612,3460,214,-169,56,
918,6,2,2023,12,7,12,124,-1280,-1538,3455,268,-171,51,
919,6,2,2023,12,7,12,134,-1308,-1475,3494,284,-120,55,
920,6,2,2023,12,7,12,144,-1261,-1502,3503,199,-81,57,
921,6,2,2023,12,7,12,154,-1298,-1456,3619,210,-35,49,
922,6,2,2023,12,7,12,164,-1257,-1525,3504,129,-36,66,
923,6,2,2023,12,7,12,174,-1305,-1469,3561,183,26,74,
924,6,2,2023,12,7,12,184,-1262,-1530,3518,131,39,73,
925,6,2,2023,12,7,12,194,-1291,-1506,3541,184,83,74,
926,6,2,2023,12,7,12,204,-1252,-1482,3517,142,112,101,
927,6,2,2023,12,7,12,214,-1287,-1504,3542,170,167,112,
928,6,2,2023,12,7,12,224,-1310,-1488,3513,192,215,114,
929,6,2,2023,12,7,12,234,-1353,-1555,3586,193,266,131,
930,6,2,2023,12,7,12,244,-1319,-1483,3610,141,222,145,
931,6,2,2023,12,7,12,254,-1270,-1466,3541,151,233,153,
932,6,2,2023,12,7,12,264,-1415,-1397,3659,186,308,142,
933,6,2,2023,12,7,12,274,-1247,-1545,3518,-91,318,182,
934,6,2,2023,12,7,12,284,-1366,-1464,3629,12,450,215,
935,6,2,2023,12,7,12,294,-1255,-1469,3559,-220,505,266,
936,6,2,2023,12,7,12,314,-1253,-1526,3565,-625,724,372,
937,6,2,2023,12,7,12,324,-1322,-1407,3776,-729,876,404,
938,6,2,2023,12,7,12,334,-1301,-1794,3546,-1171,989,536,
939,6,2,2023,12,7,12,344,-1267,-1522,3718,-1385,1243,634,
940,6,2,2023,12,7,12,354,-1285,-1691,3580,-1887,1431,792,
941,6,2,2023,12,7,12,364,-1309,-1538,3578,-2270,1637,933,
942,6,2,2023,12,7,12,374,-842,-1332,3890,-3035,1713,1113,
943,6,2,2023,12,7,12,384,-311,-1150,3912,-4760,1429,1380,
944,6,2,2023,12,7,12,394,-798,-2344,3271,-5645,1571,1433,
945,6,2,2023,12,7,12,404,710,-3303,2912,-4191,2882,1482,
946,6,2,2023,12,7,12,414,218,-3028,3267,-1927,4543,1641,
947,6,2,2023,12,7,12,424,-252,-3042,3323,-690,6026,2779,
948,6,2,2023,12,7,12,434,-131,-2987,3266,436,7528,3716,
949,6,2,2023,12,7,12,444,-1614,-2179,3921,844,9072,4177,
950,6,2,2023,12,7,12,454,-2905,-1605,4499,537,10369,4863,
951,6,2,2023,12,7,12,464,-2898,-2649,4703,-174,11209,5860,
952,6,2,2023,12,7,12,474,-2552,-3301,4810,-830,11787,6816,
953,6,2,2023,12,7,12,484,-3806,-3620,5356,-1259,12657,7677,
954,6,2,2023,12,7,12,494,-4187,-3371,6410,-1516,13356,8052,
955,6,2,2023,12,7,12,504,-5205,-4352,6707,-2129,13638,8628,
956,6,2,2023,12,7,12,514,-4789,-5586,6430,-2318,13471,9132,
957,6,2,2023,12,7,12,524,-5083,-4612,6354,-490,12659,8460,
958,6,2,2023,12,7,12,534,-6901,-3598,8122,219,11164,6173,
959,6,2,2023,12,7,12,544,-3580,-11758,7613,-4664,7089,4228,
960,6,2,2023,12,7,12,554,1945,-8181,5148,-2295,805,4284,
961,6,2,2023,12,7,12,564,-1672,-8356,5919,-1260,114,2168,
962,6,2,2023,12,7,12,574,3085,-8764,1442,600,-525,1085,
963,6,2,2023,12,7,12,584,-269,-6070,4465,3620,-424,341,
964,6,2,2023,12,7,12,594,38,-2177,5081,3593,-2588,-421,
965,6,2,2023,12,7,12,604,1892,-3283,2401,1128,-4090,-1200,
966,6,2,2023,12,7,12,614,1596,-2849,2036,999,-4418,-1684,
967,6,2,2023,12,7,12,624,1244,-2197,2312,834,-4982,-1753,
968,6,2,2023,12,7,12,634,1169,-3122,2753,65,-5528,-1827,
969,6,2,2023,12,7,12,644,598,-3136,2867,85,-6011,-2424,
970,6,2,2023,12,7,12,654,371,-2896,2967,-336,-6543,-3090,
971,6,2,2023,12,7,12,664,198,-3124,2811,-974,-7137,-3777,
972,6,2,2023,12,7,12,674,112,-3287,2486,-1233,-7456,-4471,
973,6,2,2023,12,7,12,684,-150,-3155,2388,-1196,-7477,-5088,
974,6,2,2023,12,7,12,694,-498,-2761,2584,-1130,-7426,-5702,
975,6,2,2023,12,7,12,704,-851,-2553,2989,-1210,-7293,-6110,
976,6,2,2023,12,7,12,714,-1463,-2705,3937,-1416,-7144,-6407,
977,6,2,2023,12,7,12,724,-1974,-2645,4635,-1320,-7312,-6703,
978,6,2,2023,12,7,12,734,-2289,-2713,5080,-1166,-7622,-6836,
979,6,2,2023,12,7,12,744,-3140,-2493,5418,-827,-7963,-6850,
980,6,2,2023,12,7,12,754,-2949,-2357,5516,-675,-8346,-6722,
981,6,2,2023,12,7,12,764,-2996,-2621,5453,-647,-8546,-6481,
982,6,2,2023,12,7,12,774,-3276,-3077,5314,-647,-8518,-6272,
983,6,2,2023,12,7,12,784,-3573,-2691,5707,-568,-8303,-6239,
984,6,2,2023,12,7,12,794,-4414,-1924,6334,-895,-7897,-6314,
985,6,2,2023,12,7,12,804,-5979,-2514,7208,-1709,-7639,-6208,
986,6,2,2023,12,7,12,814,-6763,-3048,7283,-1971,-7726,-6165,
987,6,2,2023,12,7,12,824,-7254,-3213,6568,-1672,-7815,-5969,
988,6,2,2023,12,7,12,834,-7494,-3175,6262,-1262,-7604,-5596,
989,6,2,2023,12,7,12,844,-8184,-2582,6389,-1083,-7161,-5391,
990,6,2,2023,12,7,12,854,-9405,-2074,6107,-1466,-6931,-5348,
991,6,2,2023,12,7,12,864,-9165,-3082,3079,-1918,-7315,-5130,
992,6,2,2023,12,7,12,874,-8434,-2470,286,-779,-6933,-4657,
993,6,2,2023,12,7,12,884,-8495,-366,-535,-57,-5784,-4163,
994,6,2,2023,12,7,12,894,-8144,2038,-1057,-751,-4735,-3631,
995,6,2,2023,12,7,12,904,-9081,1387,-1337,-3554,-3428,-3272,
996,6,2,2023,12,7,12,914,-10155,-47,-1653,-5192,-2530,-3158,
997,6,2,2023,12,7,12,924,-11135,-1087,-1818,-4626,-1416,-3235,
998,6,2,2023,12,7,12,934,-11807,-1144,-1894,-1598,78,-2875,
999,6,2,2023,12,7,12,944,-10965,739,-1253,2539,1548,-2145,
1000,6,2,2023,12,7,12,954,-9937,2089,-227,5002,2531,-1233,
1001,6,2,2023,12,7,12,964,-9187,2660,1508,5661,2914,-554,
1002,6,2,2023,12,7,12,974,-3039,-242,3329,3979,2180,238,
1003,6,2,2023,12,7,12,984,2755,-3293,6276,2490,931,217,
1004,6,2,2023,12,7,12,994,12162,-4075,6357,3470,572,1278,
1005,6,2,2023,12,7,13,4,1109,-1191,-1120,6778,3439,2535,
1006,6,2,2023,12,7,13,14,-1648,3793,1447,4542,6355,1888,
1007,6,2,2023,12,7,13,24,-4325,-3343,9605,-1092,6759,2407,
1008,6,2,2023,12,7,13,34,-4092,-942,10377,2803,5553,2584,
1009,6,2,2023,12,7,13,44,-1340,-903,6252,1908,4302,2338,
1010,6,2,2023,12,7,13,54,-914,-4546,3597,1308,4228,2072,
1011,6,2,2023,12,7,13,64,-2583,-6022,4559,2708,4628,1473,
1012,6,2,2023,12,7,13,74,-3079,-2744,5235,2994,4227,1000,
1013,6,2,2023,12,7,13,84,-2445,-630,5793,2246,3362,981,
1014,6,2,2023,12,7,13,94,-2345,-1541,5008,1829,2765,922,
1015,6,2,2023,12,7,13,104,-1777,-3629,3047,1217,2260,1077,
1016,6,2,2023,12,7,13,114,-1476,-4060,2994,828,1931,1203,
1017,6,2,2023,12,7,13,124,-1232,-2465,3702,810,1726,517,
1018,6,2,2023,12,7,13,134,-1368,86,4776,192,1537,-161,
1019,6,2,2023,12,7,13,144,-1350,-1366,4242,-49,1144,545,
1020,6,2,2023,12,7,13,154,-1245,-2315,3685,-882,820,-85,
1021,6,2,2023,12,7,13,174,-1185,-1263,4035,-149,653,626,
1022,6,2,2023,12,7,13,184,-1105,-1453,3761,-1051,492,190,
1023,6,2,2023,12,7,13,194,-1030,-1758,3545,-1584,462,97,
1024,6,2,2023,12,7,13,204,-1135,-1910,3530,-1936,464,18,
1025,6,2,2023,12,7,13,214,-1050,-2029,3406,-2077,497,27,
1026,6,2,2023,12,7,13,224,-1111,-2017,3226,-2029,593,41,
1027,6,2,2023,12,7,13,234,-1047,-2703,3485,-2310,562,81,
1028,6,2,2023,12,7,13,244,-1264,-2837,3298,-498,614,154,
1029,6,2,2023,12,7,13,254,-1124,-1984,3430,481,685,134,
1030,6,2,2023,12,7,13,264,-1204,-2110,3635,266,483,139,
1031,6,2,2023,12,7,13,274,-1125,-2102,3273,16,159,138,
1032,6,2,2023,12,7,13,284,-1126,-2051,3390,132,160,145,
1033,6,2,2023,12,7,13,294,-1054,-2084,3327,157,53,167,
1034,6,2,2023,12,7,13,304,-997,-2169,3077,151,-66,248,
1035,6,2,2023,12,7,13,314,-1082,-2064,3229,277,-10,325,
1036,6,2,2023,12,7,13,324,-1119,-1960,3404,358,-5,364,
1037,6,2,2023,12,7,13,334,-1069,-2126,3205,321,-112,394,
1038,6,2,2023,12,7,13,344,-1098,-2178,3021,458,-85,436,
1039,6,2,2023,12,7,13,354,-1192,-2004,3417,616,62,428,
1040,6,2,2023,12,7,13,364,-1166,-1944,3406,620,-37,407,
1041,6,2,2023,12,7,13,374,-1114,-2176,3183,604,-107,419,
1042,6,2,2023,12,7,13,384,-1100,-1986,3258,619,-49,425,
1043,6,2,2023,12,7,13,394,-1189,-1854,3574,635,4,439,
1044,6,2,2023,12,7,13,404,-1177,-1922,3403,595,-74,434,
1045,6,2,2023,12,7,13,414,-1185,-1904,3415,588,-67,406,
1046,6,2,2023,12,7,13,424,-1202,-1854,3518,603,-57,380,
1047,6,2,2023,12,7,13,434,-1145,-1883,3413,590,-105,359,
1048,6,2,2023,12,7,13,444,-1187,-1920,3417,630,-79,350,
1049,6,2,2023,12,7,13,454,-1215,-1882,3411,643,-75,326,
1050,6,2,2023,12,7,13,464,-1167,-1804,3470,615,-60,278,
1051,6,2,2023,12,7,13,474,-1136,-1809,3459,599,-24,256,
1052,6,2,2023,12,7,13,484,-1182,-1824,3431,562,32,247,
1053,6,2,2023,12,7,13,494,-1155,-1762,3447,474,75,220,
1054,6,2,2023,12,7,13,504,-1134,-1776,3501,448,170,206,
1055,6,2,2023,12,7,13,514,-1149,-1757,3471,386,221,233,
1056,6,2,2023,12,7,13,524,-1038,-1756,3447,265,280,242,
1057,6,2,2023,12,7,13,534,-1166,-1749,3544,169,408,325,
1058,6,2,2023,12,7,13,544,-1117,-1718,3372,-58,386,358,
1059,6,2,2023,12,7,13,554,-1222,-1968,3562,-11,607,375,
1060,6,2,2023,12,7,13,564,-1093,-1624,3493,-215,603,409,
1061,6,2,2023,12,7,13,574,-1181,-1724,3700,-276,869,435,
1062,6,2,2023,12,7,13,584,-1094,-1791,3521,-564,902,523,
1063,6,2,2023,12,7,13,594,-1121,-1736,3711,-757,1129,602,
1064,6,2,2023,12,7,13,604,-1080,-1845,3542,-1174,1233,729,
1065,6,2,2023,12,7,13,614,-1078,-1830,3643,-1476,1393,885,
1066,6,2,2023,12,7,13,624,-1100,-1938,3545,-2074,1358,1057,
1067,6,2,2023,12,7,13,634,-1150,-2161,3317,-2830,1437,1234,
1068,6,2,2023,12,7,13,644,-584,-1725,3207,-3288,1887,1459,
1069,6,2,2023,12,7,13,654,-572,-1921,3220,-4220,2403,1659,
1070,6,2,2023,12,7,13,664,-326,-1901,3761,-4394,3245,1999,
1071,6,2,2023,12,7,13,674,1108,-2809,3118,-4434,3949,2556,
1072,6,2,2023,12,7,13,684,1310,-3647,2810,-3833,5574,3067,
1073,6,2,2023,12,7,13,694,-380,-3677,5008,-2123,7266,4362,
1074,6,2,2023,12,7,13,704,-503,-3679,4210,556,7635,5544,
1075,6,2,2023,12,7,13,714,-239,-3291,4048,3072,8808,6609,
1076,6,2,2023,12,7,13,724,-1804,-1409,4132,2965,10871,7359,
1077,6,2,2023,12,7,13,734,-3229,-2593,4204,-574,13817,8925,
1078,6,2,2023,12,7,13,744,-3896,-3522,4841,-2817,16654,10491,
1079,6,2,2023,12,7,13,754,-5096,-4331,7618,-4710,18359,11650,
1080,6,2,2023,12,7,13,764,-5830,-7959,8455,-5747,18262,12330,
1081,6,2,2023,12,7,13,774,-5865,-8797,6928,-4655,17871,12812,
1082,6,2,2023,12,7,13,784,-6650,-6468,9509,-2860,17504,12539,
1083,6,2,2023,12,7,13,794,-5907,-5979,11880,-4310,14910,8958,
1084,6,2,2023,12,7,13,804,-2017,-13293,14343,-6391,9015,5612,
1085,6,2,2023,12,7,13,814,-1076,-12118,1873,-2713,-2629,8368,
1086,6,2,2023,12,7,13,824,-5543,-13200,14365,-2146,-2932,1611,
1087,6,2,2023,12,7,13,834,3112,-9678,1544,-3085,-6975,-3274,
1088,6,2,2023,12,7,13,844,5219,-7769,-4584,433,-5927,-2939,
1089,6,2,2023,12,7,13,854,3025,-2673,858,3822,-4120,-3576,
1090,6,2,2023,12,7,13,864,1235,-3412,1219,2626,-4007,-3820,
1091,6,2,2023,12,7,13,874,908,-3936,2148,1847,-3856,-4519,
1092,6,2,2023,12,7,13,884,145,-3516,3245,1417,-4612,-5304,
1093,6,2,2023,12,7,13,894,-320,-3282,3536,454,-5999,-6158,
1094,6,2,2023,12,7,13,904,-128,-3486,3330,-351,-7139,-7245,
1095,6,2,2023,12,7,13,914,-461,-3361,3585,-57,-7895,-8123,
1096,6,2,2023,12,7,13,924,-1003,-2444,2950,645,-8795,-8728,
1097,6,2,2023,12,7,13,934,-1313,-1309,2840,1052,-9257,-9106,
1098,6,2,2023,12,7,13,944,-1482,-119,3038,1346,-9401,-9089,
1099,6,2,2023,12,7,13,954,-1872,867,3333,1094,-9595,-8699,
1100,6,2,2023,12,7,13,964,-2004,-229,3966,258,-9828,-7561,
1101,6,2,2023,12,7,13,974,-2382,-1837,4296,-157,-9843,-6810,
1102,6,2,2023,12,7,13,984,-2632,-2561,4956,79,-9730,-6700,
1103,6,2,2023,12,7,13,994,-3060,-3428,5363,360,-9841,-6731,
1104,6,2,2023,12,7,14,4,-3676,-3578,6023,719,-10054,-6881,
1105,6,2,2023,12,7,14,14,-4079,-3492,6582,522,-10393,-7050,
1106,6,2,2023,12,7,14,34,-4397,-4078,6766,-979,-10463,-7674,
1107,6,2,2023,12,7,14,44,-5457,-3944,6522,-1437,-10106,-7964,
1108,6,2,2023,12,7,14,54,-6559,-4392,6549,-2068,-9415,-7738,
1109,6,2,2023,12,7,14,64,-7859,-4768,6844,-2162,-8615,-7530,
1110,6,2,2023,12,7,14,74,-9398,-5596,7626,-2447,-7866,-7258,
1111,6,2,2023,12,7,14,84,-11987,-6937,7691,-2286,-7591,-7128,
1112,6,2,2023,12,7,14,94,-12866,-8085,3394,-859,-8006,-7357,
1113,6,2,2023,12,7,14,104,-13704,-4433,-427,2820,-7467,-7199,
1114,6,2,2023,12,7,14,114,-11829,-398,-3914,4075,-6784,-6113,
1115,6,2,2023,12,7,14,124,-12295,3703,-4277,2817,-5078,-4993,
1116,6,2,2023,12,7,14,134,-13100,3410,-3803,-1736,-3723,-3928,
1117,6,2,2023,12,7,14,144,-13964,581,-3693,-4729,-2475,-3093,
1118,6,2,2023,12,7,14,154,-14579,-947,-3522,-3591,-519,-2579,
1119,6,2,2023,12,7,14,164,-12914,-670,-2658,-625,1654,-1792,
1120,6,2,2023,12,7,14,174,-11163,-523,-707,1893,3517,-933,
1121,6,2,2023,12,7,14,184,-8180,-1309,1880,3092,4531,-393,
1122,6,2,2023,12,7,14,194,-2771,-3878,5108,3340,3685,-334,
1123,6,2,2023,12,7,14,204,8974,-2252,7873,3912,2250,-844,
1124,6,2,2023,12,7,14,214,11069,4161,4244,6583,3652,652,
1125,6,2,2023,12,7,14,224,312,10140,329,6913,6637,4214,
1126,6,2,2023,12,7,14,234,-4303,667,7821,1502,7566,5030,
1127,6,2,2023,12,7,14,244,-6350,-8245,11676,1827,6869,4763,
1128,6,2,2023,12,7,14,254,-2823,-7450,7558,4513,5973,3639,
1129,6,2,2023,12,7,14,264,-2169,-5048,3731,5278,6248,2154,
1130,6,2,2023,12,7,14,274,-2275,-2352,5193,4431,5662,2048,
1131,6,2,2023,12,7,14,284,-4798,-1905,7945,3064,4673,2207,
1132,6,2,2023,12,7,14,294,-4115,-1439,6264,2224,3442,2091,
1133,6,2,2023,12,7,14,304,-575,-2380,3341,856,2895,1335,
1134,6,2,2023,12,7,14,314,-675,-3231,3373,227,2681,1692,
1135,6,2,2023,12,7,14,324,-1934,-1986,4332,96,2176,2166,
1136,6,2,2023,12,7,14,334,-1339,-733,4786,-229,1877,1659,
1137,6,2,2023,12,7,14,344,-1063,-2216,3707,-757,1592,1495,
1138,6,2,2023,12,7,14,354,-1334,-3019,3672,-987,1185,1538,
1139,6,2,2023,12,7,14,364,-1246,-1763,4228,-205,911,1060,
1140,6,2,2023,12,7,14,374,-1227,-1510,4119,199,744,759,
1141,6,2,2023,12,7,14,384,-1072,-2006,3648,-188,494,712,
1142,6,2,2023,12,7,14,394,-1047,-1890,3677,-123,519,558,
1143,6,2,2023,12,7,14,404,-1049,-1810,3709,-161,512,485,
1144,6,2,2023,12,7,14,414,-1073,-1898,3582,-258,436,425,
1145,6,2,2023,12,7,14,424,-997,-1938,3440,-246,417,413,
1146,6,2,2023,12,7,14,434,-994,-1952,3437,-218,405,426,
1147,6,2,2023,12,7,14,444,-963,-1796,3545,-242,325,362,
1148,6,2,2023,12,7,14,454,-1072,-1795,3559,-384,227,299,
1149,6,2,2023,12,7,14,464,-1189,-2073,3462,-465,145,352,
1150,6,2,2023,12,7,14,474,-1180,-2032,3441,-216,142,368,
1151,6,2,2023,12,7,14,484,-1099,-2010,3511,68,158,329,
1152,6,2,2023,12,7,14,494,-1082,-1872,3416,238,126,280,
1153,6,2,2023,12,7,14,504,-1116,-1866,3516,245,131,276,
1154,6,2,2023,12,7,14,514,-1130,-1786,3535,178,109,236,
1155,6,2,2023,12,7,14,524,-1132,-1782,3571,127,113,185,
1156,6,2,2023,12,7,14,534,-1073,-1823,3412,42,61,170,
1157,6,2,2023,12,7,14,544,-1122,-1875,3457,95,110,170,
1158,6,2,2023,12,7,14,554,-1133,-1816,3476,91,117,139,
1159,6,2,2023,12,7,14,564,-1074,-1836,3453,99,81,142,
1160,6,2,2023,12,7,14,574,-1119,-1768,3439,106,99,134,
1161,6,2,2023,12,7,14,584,-1074,-1832,3525,180,55,133,
1162,6,2,2023,12,7,14,594,-1108,-1880,3270,239,80,131,
1163,6,2,2023,12,7,14,604,-1096,-1793,3345,331,94,128,
1164,6,2,2023,12,7,14,614,-1124,-1778,3641,449,195,111,
1165,6,2,2023,12,7,14,624,-1080,-1784,3357,394,131,115,
1166,6,2,2023,12,7,14,634,-1079,-1764,3438,453,240,115,
1167,6,2,2023,12,7,14,644,-1136,-1747,3487,464,315,122,
1168,6,2,2023,12,7,14,654,-1110,-1820,3395,341,247,140,
1169,6,2,2023,12,7,14,664,-1027,-1621,3444,381,305,147,
1170,6,2,2023,12,7,14,674,-1192,-1905,3526,178,376,182,
1171,6,2,2023,12,7,14,684,-986,-1658,3411,209,368,192,
1172,6,2,2023,12,7,14,694,-1176,-1837,3597,80,502,256,
1173,6,2,2023,12,7,14,704,-1102,-1714,3584,-102,438,276,
1174,6,2,2023,12,7,14,714,-1228,-1887,3581,-222,501,335,
1175,6,2,2023,12,7,14,724,-989,-1620,3525,-490,395,358,
1176,6,2,2023,12,7,14,734,-1299,-1908,3686,-549,662,448,
1177,6,2,2023,12,7,14,744,-879,-1573,3590,-996,498,472,
1178,6,2,2023,12,7,14,754,-1265,-2104,3697,-1251,911,695,
1179,6,2,2023,12,7,14,764,-968,-1865,3503,-1750,923,786,
1180,6,2,2023,12,7,14,774,-852,-1872,3324,-2084,1345,1021,
1181,6,2,2023,12,7,14,784,-780,-1949,3422,-2710,1802,1374,
1182,6,2,2023,12,7,14,794,-474,-1922,3053,-3519,2184,1776,
1183,6,2,2023,12,7,14,804,-392,-1464,3280,-3831,2895,2186,
1184,6,2,2023,12,7,14,814,-208,-1267,4441,-4659,3584,2703,
1185,6,2,2023,12,7,14,824,237,-2408,4884,-4828,3696,3406,
1186,6,2,2023,12,7,14,834,793,-4123,3456,-3418,4119,4195,
1187,6,2,2023,12,7,14,844,649,-4648,3568,-1173,5774,4950,
1188,6,2,2023,12,7,14,854,401,-4082,3972,2166,7497,6002,
1189,6,2,2023,12,7,14,864,-576,-2633,4210,3832,9296,6987,
1190,6,2,2023,12,7,14,874,-2717,-1217,4104,1077,11691,7670,
1191,6,2,2023,12,7,14,894,-5505,-3246,6075,-6094,16893,10749,
1192,6,2,2023,12,7,14,904,-5483,-6333,9691,-8721,17794,12011,
1193,6,2,2023,12,7,14,914,-5002,-8723,9026,-8276,16591,12469,
1194,6,2,2023,12,7,14,924,-5843,-9564,9448,-4849,15300,13183,
1195,6,2,2023,12,7,14,934,-4018,-7895,10446,-1913,12852,11250,
1196,6,2,2023,12,7,14,944,1401,-11316,9711,-3281,9231,7796,
1197,6,2,2023,12,7,14,954,-178,-12448,2937,202,3255,9978,
1198,6,2,2023,12,7,14,964,-5179,-4240,14254,1704,-301,4678,
1199,6,2,2023,12,7,14,974,4240,-10000,3361,-6204,-4005,-148,
1200,6,2,2023,12,7,14,984,4418,-12327,-753,-3544,-3553,-948,
1201,6,2,2023,12,7,14,994,1653,-7338,2144,2414,-3111,-1870,
1202,6,2,2023,12,7,15,4,1597,-4650,2545,3463,-4003,-3000,
1203,6,2,2023,12,7,15,14,1816,-4818,2078,2434,-4426,-4392,
1204,6,2,2023,12,7,15,24,615,-4117,2786,2285,-4731,-5591,
1205,6,2,2023,12,7,15,34,-90,-3313,3179,1628,-5692,-6796,
1206,6,2,2023,12,7,15,44,-85,-2796,3314,180,-6969,-8239,
1207,6,2,2023,12,7,15,54,-234,-2843,3177,-180,-7856,-9058,
1208,6,2,2023,12,7,15,64,-395,-1729,2491,999,-8338,-9077,
1209,6,2,2023,12,7,15,74,-942,-1472,2808,1015,-8499,-8558,
1210,6,2,2023,12,7,15,84,-1211,-848,3410,967,-8708,-8374,
1211,6,2,2023,12,7,15,94,-1725,-768,3690,841,-9209,-7982,
1212,6,2,2023,12,7,15,104,-2689,-1114,4044,583,-9649,-7552,
1213,6,2,2023,12,7,15,114,-2567,-1799,4237,325,-10006,-7229,
1214,6,2,2023,12,7,15,124,-2743,-2114,4608,145,-10307,-7059,
1215,6,2,2023,12,7,15,134,-3033,-2979,5051,-121,-10581,-6719,
1216,6,2,2023,12,7,15,144,-3451,-3592,5786,-365,-10692,-6802,
1217,6,2,2023,12,7,15,154,-3804,-4031,6276,-513,-10805,-7095,
1218,6,2,2023,12,7,15,164,-4001,-3944,6771,-501,-10892,-7318,
1219,6,2,2023,12,7,15,174,-4388,-4185,7137,-606,-10860,-7306,
1220,6,2,2023,12,7,15,184,-5103,-4381,7361,-697,-10698,-7176,
1221,6,2,2023,12,7,15,194,-6451,-3866,7573,-853,-10437,-7124,
1222,6,2,2023,12,7,15,204,-7848,-3744,7791,-1516,-10220,-7104,
1223,6,2,2023,12,7,15,214,-8746,-4375,7572,-1927,-10107,-7029,
1224,6,2,2023,12,7,15,224,-7051,-5294,5846,-792,-9556,-6623,
1225,6,2,2023,12,7,15,234,-11940,-2746,5810,2887,-8019,-5730,
1226,6,2,2023,12,7,15,244,-10282,-1630,2500,1700,-8192,-4992,
1227,6,2,2023,12,7,15,254,-10497,-2339,1591,712,-7269,-4468,
1228,6,2,2023,12,7,15,264,-11482,-1159,-531,1357,-5920,-4028,
1229,6,2,2023,12,7,15,274,-11343,906,-1397,711,-5061,-3352,
1230,6,2,2023,12,7,15,284,-12400,861,-1978,-941,-3973,-2817,
1231,6,2,2023,12,7,15,294,-12905,1624,-2379,-607,-1972,-1841,
1232,6,2,2023,12,7,15,304,-12223,480,-2352,-804,21,-1385,
1233,6,2,2023,12,7,15,314,-10910,-545,-989,429,1978,-779,
1234,6,2,2023,12,7,15,324,-9637,-825,600,2156,3553,-208,
1235,6,2,2023,12,7,15,334,-7064,-1541,1633,2940,4436,-174,
1236,6,2,2023,12,7,15,344,-1332,-2690,4451,2199,4196,-425,
1237,6,2,2023,12,7,15,354,8061,-1075,6285,1320,3251,-624,
1238,6,2,2023,12,7,15,364,8017,2058,3349,3421,5552,541,
1239,6,2,2023,12,7,15,374,-1631,5405,3280,3622,8040,3055,
1240,6,2,2023,12,7,15,384,-3454,818,7324,675,7539,4117,
1241,6,2,2023,12,7,15,394,-4235,-3187,10520,1681,6301,3897,
1242,6,2,2023,12,7,15,404,-2281,-3379,8522,2306,5346,3348,
1243,6,2,2023,12,7,15,414,-1040,-4811,4257,2518,5265,2329,
1244,6,2,2023,12,7,15,424,-1547,-6191,4302,3607,5493,1650,
1245,6,2,2023,12,7,15,434,-3515,-2963,6131,4081,4911,1264,
1246,6,2,2023,12,7,15,444,-3852,-1639,6802,2736,3635,1418,
1247,6,2,2023,12,7,15,454,-1651,-1407,4852,1698,2810,1008,
1248,6,2,2023,12,7,15,464,-454,-3034,3345,1048,2543,886,
1249,6,2,2023,12,7,15,474,-1338,-3312,3311,1063,2418,1416,
1250,6,2,2023,12,7,15,484,-1360,-1837,3916,580,2071,1597,
1251,6,2,2023,12,7,15,494,-982,-852,4476,113,1855,1512,
1252,6,2,2023,12,7,15,504,-1147,-1158,4558,-141,1711,1385,
1253,6,2,2023,12,7,15,514,-1208,-1933,4205,-261,1461,1125,
1254,6,2,2023,12,7,15,524,-994,-1963,4003,-105,1149,860,
1255,6,2,2023,12,7,15,534,-960,-1548,3999,211,946,702,
1256,6,2,2023,12,7,15,544,-1032,-1627,3882,134,862,582,
1257,6,2,2023,12,7,15,554,-890,-1892,3632,-77,791,479,
1258,6,2,2023,12,7,15,564,-915,-1957,3592,-138,741,464,
1259,6,2,2023,12,7,15,574,-946,-1842,3626,-59,699,444,
1260,6,2,2023,12,7,15,584,-985,-1960,3536,-113,604,433,
1261,6,2,2023,12,7,15,594,-962,-1877,3518,-110,570,408,
1262,6,2,2023,12,7,15,604,-909,-1757,3557,-108,548,396,
1263,6,2,2023,12,7,15,614,-999,-1612,3627,-143,574,359,
1264,6,2,2023,12,7,15,624,-1017,-1668,3637,-380,526,418,
1265,6,2,2023,12,7,15,634,-978,-1755,3521,-443,486,462,
1266,6,2,2023,12,7,15,644,-971,-1667,3620,-477,503,434,
1267,6,2,2023,12,7,15,654,-983,-1643,3680,-501,472,408,
1268,6,2,2023,12,7,15,664,-977,-1758,3502,-657,347,447,
1269,6,2,2023,12,7,15,674,-977,-1758,3502,-657,347,447,
1270,6,2,2023,12,7,15,684,-977,-1758,3502,-657,347,447,
1271,6,2,2023,12,7,15,694,-977,-1758,3502,-657,347,447,
1272,6,2,2023,12,7,15,704,-1205,-2000,3534,44,295,318,
1273,6,2,2023,12,7,15,714,-1060,-1747,3576,166,287,208,
1274,6,2,2023,12,7,15,724,-1054,-1797,3492,73,202,241,
1275,6,2,2023,12,7,15,734,-1163,-1732,3574,158,256,202,
1276,6,2,2023,12,7,15,754,-995,-1701,3309,245,207,153,
1277,6,2,2023,12,7,15,764,-1139,-1736,3564,381,389,149,
1278,6,2,2023,12,7,15,774,-1057,-1655,3542,366,350,138,
1279,6,2,2023,12,7,15,784,-1110,-1724,3538,353,372,162,
1280,6,2,2023,12,7,15,794,-1187,-1783,3447,337,308,160,
1281,6,2,2023,12,7,15,804,-1134,-1786,3470,363,272,157,
1282,6,2,2023,12,7,15,814,-1067,-1664,3580,373,255,178,
1283,6,2,2023,12,7,15,824,-1098,-1700,3428,248,265,188,
1284,6,2,2023,12,7,15,834,-1104,-1800,3474,141,289,227,
1285,6,2,2023,12,7,15,844,-921,-1627,3585,118,335,246,
1286,6,2,2023,12,7,15,854,-1316,-1911,3511,-115,476,333,
1287,6,2,2023,12,7,15,864,-1011,-1737,3473,-202,308,371,
1288,6,2,2023,12,7,15,874,-1120,-1744,3663,-368,422,432,
1289,6,2,2023,12,7,15,884,-1129,-1665,3741,-536,473,527,
1290,6,2,2023,12,7,15,894,-957,-1699,3705,-958,502,613,
1291,6,2,2023,12,7,15,904,-1130,-2080,3571,-1344,742,862,
1292,6,2,2023,12,7,15,914,-760,-2021,3402,-1849,975,1060,
1293,6,2,2023,12,7,15,924,-422,-1846,3485,-2245,1600,1537,
1294,6,2,2023,12,7,15,934,-242,-1716,3502,-3248,2163,2289,
1295,6,2,2023,12,7,15,944,-237,-1303,3916,-3999,2742,2927,
1296,6,2,2023,12,7,15,954,1198,-2211,4670,-4784,3381,3777,
1297,6,2,2023,12,7,15,964,1161,-4928,4324,-3002,4615,4904,
1298,6,2,2023,12,7,15,974,490,-4985,3561,217,6311,6101,
1299,6,2,2023,12,7,15,984,79,-4404,4090,1937,8532,7455,
1300,6,2,2023,12,7,15,994,-1093,-3799,4081,2723,10711,8931,
1301,6,2,2023,12,7,16,4,-3104,-1926,4735,1521,13457,9605,
1302,6,2,2023,12,7,16,14,-5522,-1671,6833,-1566,15333,10631,
1303,6,2,2023,12,7,16,24,-4783,-3305,8216,-3940,15410,11678,
1304,6,2,2023,12,7,16,34,-4847,-8368,9351,-4801,14690,11822,
1305,6,2,2023,12,7,16,44,-4121,-10296,8741,-2849,12797,10730,
1306,6,2,2023,12,7,16,54,-3715,-8398,8308,-1063,10632,9240,
1307,6,2,2023,12,7,16,64,1652,-7575,9716,1009,9246,8987,
1308,6,2,2023,12,7,16,74,4015,-11905,5811,1019,7144,7622,
1309,6,2,2023,12,7,16,84,-4346,-10998,3070,2550,4819,3632,
1310,6,2,2023,12,7,16,94,-2024,-3682,11158,-527,1380,2535,
1311,6,2,2023,12,7,16,104,3882,-9002,5113,-6400,-1985,-1026,
1312,6,2,2023,12,7,16,114,4408,-6362,730,-1568,-2443,-3041,
1313,6,2,2023,12,7,16,124,2431,-5502,1809,-556,-1888,-2813,
1314,6,2,2023,12,7,16,134,1364,-3783,3244,493,-2428,-2884,
1315,6,2,2023,12,7,16,144,1108,-3237,3971,-414,-3616,-3911,
1316,6,2,2023,12,7,16,154,1369,-3694,3912,-1843,-4712,-5361,
1317,6,2,2023,12,7,16,164,981,-3450,3250,-1865,-5442,-6346,
1318,6,2,2023,12,7,16,174,779,-2929,2768,-1844,-6079,-7027,
1319,6,2,2023,12,7,16,184,571,-2556,2778,-1956,-6583,-7735,
1320,6,2,2023,12,7,16,194,112,-2150,2965,-1684,-6844,-8285,
1321,6,2,2023,12,7,16,204,-466,-1540,3498,-1275,-6990,-8488,
1322,6,2,2023,12,7,16,214,-1106,-970,4298,-1083,-7264,-8415,
1323,6,2,2023,12,7,16,224,-1477,-646,4767,-927,-7715,-8158,
1324,6,2,2023,12,7,16,234,-2037,-672,5028,-870,-8213,-7684,
1325,6,2,2023,12,7,16,244,-2354,-830,5381,-902,-8725,-7178,
1326,6,2,2023,12,7,16,254,-2353,-1435,5732,-995,-9249,-6760,
1327,6,2,2023,12,7,16,264,-2720,-2384,6166,-976,-9710,-6474,
1328,6,2,2023,12,7,16,274,-2864,-3140,6253,-792,-10129,-6365,
1329,6,2,2023,12,7,16,284,-2997,-3665,6350,-548,-10406,-6403,
1330,6,2,2023,12,7,16,294,-3137,-4288,6528,-526,-10551,-6532,
1331,6,2,2023,12,7,16,304,-3290,-4800,6980,-594,-10585,-6793,
1332,6,2,2023,12,7,16,314,-3307,-4536,6838,-712,-10533,-7202,
1333,6,2,2023,12,7,16,324,-3505,-5516,6895,-1458,-10100,-7392,
1334,6,2,2023,12,7,16,334,-4406,-5863,7197,-1690,-9539,-7705,
1335,6,2,2023,12,7,16,344,-5896,-6209,7990,-1822,-8965,-8061,
1336,6,2,2023,12,7,16,354,-5803,-7664,7920,-1190,-8253,-8198,
1337,6,2,2023,12,7,16,364,-10090,-6307,8314,1933,-7647,-7852,
1338,6,2,2023,12,7,16,374,-9722,-3930,4245,1828,-8291,-8027,
1339,6,2,2023,12,7,16,384,-9924,-2163,2550,1403,-7781,-7537,
1340,6,2,2023,12,7,16,394,-11317,-778,-1290,1560,-6225,-6579,
1341,6,2,2023,12,7,16,404,-13276,1964,-2053,909,-4571,-5265,
1342,6,2,2023,12,7,16,414,-16121,1699,-1650,-1665,-3510,-4072,
1343,6,2,2023,12,7,16,424,-17338,1080,-2104,-2077,-2162,-2805,
1344,6,2,2023,12,7,16,434,-15571,2983,-1854,-745,-131,-2755,
1345,6,2,2023,12,7,16,444,-13088,45,-1354,-273,1996,-825,
1346,6,2,2023,12,7,16,454,-10864,-2554,238,1964,4286,-14,
1347,6,2,2023,12,7,16,464,-7530,-1006,2785,4338,5505,305,
1348,6,2,2023,12,7,16,474,-3807,-2417,4477,3009,4885,4,
1349,6,2,2023,12,7,16,484,10816,-2659,5270,1252,3326,-771,
1350,6,2,2023,12,7,16,494,13891,-10,4673,3871,4817,414,
1351,6,2,2023,12,7,16,504,-1172,5290,-240,5521,8728,3128,
1352,6,2,2023,12,7,16,514,-3524,4308,6351,1527,8777,4516,
1353,6,2,2023,12,7,16,524,-5378,-4352,11021,1061,7423,4027,
1354,6,2,2023,12,7,16,534,-2385,-4197,10357,4231,6449,3745,
1355,6,2,2023,12,7,16,544,-1928,-3617,5773,4204,6188,2852,
1356,6,2,2023,12,7,16,554,-1427,-4447,4324,4739,6175,2171,
1357,6,2,2023,12,7,16,564,-3493,-3588,6392,4634,5655,1706,
1358,6,2,2023,12,7,16,574,-3864,-1585,6843,3413,4363,1705,
1359,6,2,2023,12,7,16,584,-2244,-1368,5144,2347,3557,1419,
1360,6,2,2023,12,7,16,594,-842,-2486,3751,1488,3265,1176,
1361,6,2,2023,12,7,16,614,-1685,-1316,4377,158,2703,1760,
1362,6,2,2023,12,7,16,624,-992,-881,4385,-612,2478,1451,
1363,6,2,2023,12,7,16,634,-921,-1497,4152,-1080,2369,1388,
1364,6,2,2023,12,7,16,644,-1234,-1973,3975,-1596,2096,1374,
1365,6,2,2023,12,7,16,654,-1204,-1509,4013,-1774,1930,1126,
1366,6,2,2023,12,7,16,664,-1023,-1514,4235,-2425,1656,1061,
1367,6,2,2023,12,7,16,674,-900,-1740,3786,-2904,1242,1027,
1368,6,2,2023,12,7,16,684,-884,-1972,3674,-2574,1081,907,
1369,6,2,2023,12,7,16,694,-1272,-2581,3805,-1930,1045,983,
1370,6,2,2023,12,7,16,704,-1627,-2978,3869,-144,907,968,
1371,6,2,2023,12,7,16,714,-1008,-2055,3524,262,548,386,
1372,6,2,2023,12,7,16,724,-956,-1690,3503,-33,440,222,
1373,6,2,2023,12,7,16,734,-1079,-1872,3646,-48,478,306,
1374,6,2,2023,12,7,16,744,-1074,-1873,3503,-111,373,310,
1375,6,2,2023,12,7,16,754,-1122,-1795,3592,-105,373,294,
1376,6,2,2023,12,7,16,764,-1111,-1762,3600,-143,323,263,
1377,6,2,2023,12,7,16,774,-1092,-1818,3569,-190,264,245,
1378,6,2,2023,12,7,16,784,-1061,-1960,3396,-159,222,267,
1379,6,2,2023,12,7,16,794,-1060,-1877,3328,-182,173,290,
1380,6,2,2023,12,7,16,804,-1082,-1856,3536,-71,251,288,
1381,6,2,2023,12,7,16,814,-1109,-1955,3355,-122,160,311,
1382,6,2,2023,12,7,16,824,-1064,-1837,3389,-72,142,301,
1383,6,2,2023,12,7,16,834,-1146,-1896,3547,24,238,314,
1384,6,2,2023,12,7,16,844,-1190,-1962,3282,29,151,305,
1385,6,2,2023,12,7,16,854,-1156,-1904,3526,257,197,232,
1386,6,2,2023,12,7,16,864,-1220,-1986,3330,301,131,244,
1387,6,2,2023,12,7,16,874,-1200,-1952,3519,402,138,177,
1388,6,2,2023,12,7,16,884,-1242,-1848,3537,470,59,139,
1389,6,2,2023,12,7,16,894,-1068,-1994,3147,390,-52,132,
1390,6,2,2023,12,7,16,904,-1248,-1752,3595,682,100,121,
1391,6,2,2023,12,7,16,914,-1100,-1814,3388,498,-80,82,
1392,6,2,2023,12,7,16,924,-994,-1706,3436,524,11,89,
1393,6,2,2023,12,7,16,934,-1124,-1759,3482,396,121,148,
1394,6,2,2023,12,7,16,944,-1080,-1875,3506,309,82,162,
1395,6,2,2023,12,7,16,954,-1036,-1768,3428,162,98,218,
1396,6,2,2023,12,7,16,964,-989,-1696,3517,69,216,261,
1397,6,2,2023,12,7,16,974,-1108,-1806,3574,-99,313,335,
1398,6,2,2023,12,7,16,984,-971,-1662,3451,-314,339,395,
1399,6,2,2023,12,7,16,994,-1080,-1766,3551,-369,623,497,
1400,6,2,2023,12,7,17,4,-903,-1548,3568,-601,791,587,
1401,6,2,2023,12,7,17,14,-1113,-1865,3748,-998,1110,773,
1402,6,2,2023,12,7,17,24,-860,-1785,3622,-1520,1233,964,
1403,6,2,2023,12,7,17,34,-776,-1711,3425,-1992,1617,1268,
1404,6,2,2023,12,7,17,44,-714,-1843,3470,-2929,2006,1748,
1405,6,2,2023,12,7,17,54,-456,-1549,3852,-3451,2516,2100,
1406,6,2,2023,12,7,17,64,-162,-741,3891,-4045,2901,2478,
1407,6,2,2023,12,7,17,74,226,-1701,4494,-4817,3338,3049,
1408,6,2,2023,12,7,17,84,850,-3289,3663,-4027,3817,3738,
1409,6,2,2023,12,7,17,94,499,-4311,3494,-1860,5059,4499,
1410,6,2,2023,12,7,17,104,371,-4869,3660,398,6503,5105,
1411,6,2,2023,12,7,17,114,708,-4732,3923,3424,8056,5843,
1412,6,2,2023,12,7,17,124,-374,-2461,3361,4598,10081,6121,
1413,6,2,2023,12,7,17,134,-2354,-417,4139,2399,12777,7177,
1414,6,2,2023,12,7,17,144,-3725,-2457,4364,-1118,15558,9216,
1415,6,2,2023,12,7,17,154,-4823,-2564,5316,-3099,18051,10891,
1416,6,2,2023,12,7,17,164,-5045,-3532,6678,-5792,19821,12703,
1417,6,2,2023,12,7,17,174,-4585,-6749,6950,-7072,20621,13829,
1418,6,2,2023,12,7,17,184,-6056,-7466,7133,-4519,19936,14145,
1419,6,2,2023,12,7,17,194,-7174,-7806,9611,-3032,19046,14007,
1420,6,2,2023,12,7,17,204,-5646,-9821,15260,-4325,17087,11246,
1421,6,2,2023,12,7,17,214,-4955,-18932,16103,-4763,11139,7889,
1422,6,2,2023,12,7,17,224,3522,-9293,5349,1168,171,8482,
1423,6,2,2023,12,7,17,234,-11606,-12584,19060,703,-3464,2205,
1424,6,2,2023,12,7,17,244,-2709,-10830,10504,-3165,-10330,-5073,
1425,6,2,2023,12,7,17,254,4435,-6135,-5525,-4204,-12698,-6630,
1426,6,2,2023,12,7,17,264,5198,-4233,-1368,434,-9529,-6505,
1427,6,2,2023,12,7,17,274,1739,-3398,578,1681,-8456,-6104,
1428,6,2,2023,12,7,17,284,-1621,-3683,2470,1714,-7419,-6193,
1429,6,2,2023,12,7,17,294,-1710,-3914,4034,976,-8037,-7208,
1430,6,2,2023,12,7,17,304,-1764,-3646,4044,301,-9974,-8357,
1431,6,2,2023,12,7,17,314,-1928,-3944,4034,-322,-11354,-9820,
1432,6,2,2023,12,7,17,324,-1679,-2663,3257,431,-12220,-11268,
1433,6,2,2023,12,7,17,334,-1975,-145,2803,1339,-12717,-11764,
1434,6,2,2023,12,7,17,344,-2776,1555,2745,1771,-12694,-10376,
1435,6,2,2023,12,7,17,354,-2066,1214,2692,482,-12714,-8785,
1436,6,2,2023,12,7,17,364,-2269,174,3284,-894,-12521,-8042,
1437,6,2,2023,12,7,17,374,-2691,-1150,4298,-1368,-12116,-7352,
1438,6,2,2023,12,7,17,384,-2746,-2167,5277,-1571,-11804,-6882,
1439,6,2,2023,12,7,17,394,-2727,-3221,5935,-1715,-11557,-6835,
1440,6,2,2023,12,7,17,404,-3012,-4612,6227,-1737,-11215,-7079,
1441,6,2,2023,12,7,17,414,-3357,-5235,5994,-1711,-10623,-7643,
1442,6,2,2023,12,7,17,424,-4420,-3532,6509,-1730,-9660,-8413,
1443,6,2,2023,12,7,17,434,-6273,-2536,6931,-2734,-8827,-8724,
1444,6,2,2023,12,7,17,444,-7860,-2568,8029,-3586,-8240,-8495,
1445,6,2,2023,12,7,17,454,-8984,-3345,8533,-4087,-8165,-8301,
1446,6,2,2023,12,7,17,474,-11259,-6707,5827,-1833,-7431,-6462,
1447,6,2,2023,12,7,17,484,-13624,-4820,3564,837,-6832,-6544,
1448,6,2,2023,12,7,17,494,-11501,-1564,-464,1455,-7102,-6345,
1449,6,2,2023,12,7,17,504,-11515,-549,-3123,1245,-5476,-5497,
1450,6,2,2023,12,7,17,514,-11262,1638,-4088,311,-3478,-4649,
1451,6,2,2023,12,7,17,524,-12639,478,-2164,-2274,-1824,-4043,
1452,6,2,2023,12,7,17,534,-14277,-560,-1272,-3010,-740,-3608,
1453,6,2,2023,12,7,17,544,-14378,-267,-1878,-2155,186,-3364,
1454,6,2,2023,12,7,17,554,-12628,618,-1997,-316,1813,-2449,
1455,6,2,2023,12,7,17,564,-11251,243,-430,1591,3676,-885,
1456,6,2,2023,12,7,17,574,-8068,-570,2568,2823,4694,87,
1457,6,2,2023,12,7,17,584,-748,-3046,6012,2137,3725,106,
1458,6,2,2023,12,7,17,594,11952,-713,8128,2567,3103,-304,
1459,6,2,2023,12,7,17,604,7191,2768,1763,4746,5146,1925,
1460,6,2,2023,12,7,17,614,-1890,4718,2198,4102,7161,4831,
1461,6,2,2023,12,7,17,624,-4126,-4591,6989,-37,7360,4890,
1462,6,2,2023,12,7,17,634,-4408,-5278,10156,2714,6992,4181,
1463,6,2,2023,12,7,17,644,-2672,-4147,8359,3022,6086,3436,
1464,6,2,2023,12,7,17,654,-1824,-2368,5230,3096,5643,2658,
1465,6,2,2023,12,7,17,664,-1763,-4071,4967,3797,5448,2378,
1466,6,2,2023,12,7,17,674,-3683,-3941,5942,3652,4847,2084,
1467,6,2,2023,12,7,17,684,-4100,-2746,5834,2727,3736,2123,
1468,6,2,2023,12,7,17,694,-1397,-1804,3859,1756,2956,1825,
1469,6,2,2023,12,7,17,704,-509,-2861,3520,1067,2787,1889,
1470,6,2,2023,12,7,17,714,-1609,-2757,4102,1089,2431,2424,
1471,6,2,2023,12,7,17,724,-1613,-1437,4449,1033,2081,2147,
1472,6,2,2023,12,7,17,734,-859,-1626,4427,832,1801,1754,
1473,6,2,2023,12,7,17,744,-1415,-2347,4106,991,1443,1678,
1474,6,2,2023,12,7,17,754,-1560,-2251,4090,1065,1033,1301,
1475,6,2,2023,12,7,17,764,-1044,-1645,3912,945,748,824,
1476,6,2,2023,12,7,17,774,-1101,-1785,3944,603,711,646,
1477,6,2,2023,12,7,17,784,-1074,-1882,3820,360,607,486,
1478,6,2,2023,12,7,17,794,-1021,-1835,3773,223,513,388,
1479,6,2,2023,12,7,17,804,-1061,-1957,3671,117,418,342,
1480,6,2,2023,12,7,17,814,-997,-2016,3539,80,309,298,
1481,6,2,2023,12,7,17,824,-1033,-1829,3632,119,258,270,
1482,6,2,2023,12,7,17,834,-986,-1839,3524,89,178,247,
1483,6,2,2023,12,7,17,844,-963,-1799,3534,95,168,235,
1484,6,2,2023,12,7,17,854,-995,-1707,3572,44,169,231,
1485,6,2,2023,12,7,17,864,-976,-1624,3603,-60,165,226,
1486,6,2,2023,12,7,17,874,-990,-1596,3585,-180,175,224,
1487,6,2,2023,12,7,17,884,-1020,-1626,3567,-377,200,230,
1488,6,2,2023,12,7,17,894,-1001,-1772,3612,-472,215,240,
1489,6,2,2023,12,7,17,904,-1071,-1806,3547,-243,196,185,
1490,6,2,2023,12,7,17,914,-1061,-1824,3439,-152,187,137,
1491,6,2,2023,12,7,17,924,-977,-1737,3587,-114,203,123,
1492,6,2,2023,12,7,17,934,-1052,-1812,3532,-161,184,142,
1493,6,2,2023,12,7,17,944,-1000,-1905,3399,-97,154,150,
1494,6,2,2023,12,7,17,954,-1047,-1889,3362,69,211,134,
1495,6,2,2023,12,7,17,964,-1040,-1798,3505,204,250,121,
1496,6,2,2023,12,7,17,974,-1021,-1814,3340,342,276,107,
1497,6,2,2023,12,7,17,984,-989,-1787,3439,373,325,132,
1498,6,2,2023,12,7,17,994,-1052,-1655,3504,455,419,155,
1499,6,2,2023,12,7,18,4,-1022,-1649,3564,412,439,168,
1500,6,2,2023,12,7,18,14,-1087,-1614,3545,397,501,194,
1501,6,2,2023,12,7,18,24,-1043,-1617,3605,331,502,199,
1502,6,2,2023,12,7,18,34,-1108,-1709,3550,264,523,223,
1503,6,2,2023,12,7,18,44,-1114,-1721,3474,217,522,236,
1504,6,2,2023,12,7,18,54,-1065,-1904,3688,97,493,252,
1505,6,2,2023,12,7,18,64,-1215,-1803,3417,-36,475,297,
1506,6,2,2023,12,7,18,74,-1044,-1774,3523,-114,415,274,
1507,6,2,2023,12,7,18,84,-1118,-1717,3583,-226,488,355,
1508,6,2,2023,12,7,18,94,-1011,-1715,3551,-382,577,408,
1509,6,2,2023,12,7,18,104,-968,-1561,3652,-604,748,516,
1510,6,2,2023,12,7,18,114,-1101,-1830,3740,-952,1001,661,
1511,6,2,2023,12,7,18,124,-1000,-1885,3710,-1413,1145,803,
1512,6,2,2023,12,7,18,134,-771,-1703,3462,-1944,1398,1015,
1513,6,2,2023,12,7,18,144,-938,-2079,3539,-2736,1769,1503,
1514,6,2,2023,12,7,18,154,-320,-1455,3423,-3554,2004,1899,
1515,6,2,2023,12,7,18,164,-215,-992,4075,-4136,2525,2434,
1516,6,2,2023,12,7,18,174,391,-1541,4542,-5154,3007,3184,
1517,6,2,2023,12,7,18,184,1126,-3845,3868,-3854,3756,4066,
1518,6,2,2023,12,7,18,194,866,-4504,3668,-919,5123,4926,
1519,6,2,2023,12,7,18,204,766,-4990,3421,1768,6724,5698,
1520,6,2,2023,12,7,18,214,343,-3500,4301,4320,8567,6887,
1521,6,2,2023,12,7,18,224,-733,-3022,3458,4145,10512,7894,
1522,6,2,2023,12,7,18,234,-2561,-1652,4285,2611,13616,8476,
1523,6,2,2023,12,7,18,244,-4444,-1297,5396,-294,16518,10098,
1524,6,2,2023,12,7,18,254,-5552,-2867,6810,-4094,18571,11980,
1525,6,2,2023,12,7,18,264,-5885,-4453,8371,-6420,19553,13241,
1526,6,2,2023,12,7,18,274,-5561,-6983,9088,-6501,18870,13335,
1527,6,2,2023,12,7,18,284,-6751,-7349,8487,-3804,16962,13195,
1528,6,2,2023,12,7,18,294,-5300,-7021,11086,-3335,15158,12554,
1529,6,2,2023,12,7,18,304,-377,-10612,11844,-3948,12329,9915,
1530,6,2,2023,12,7,18,314,519,-13865,6849,-3408,7009,8989,
1531,6,2,2023,12,7,18,334,-646,-8567,12131,-2252,-5066,-650,
1532,6,2,2023,12,7,18,344,3285,-10045,-1747,-5616,-7939,-2949,
1533,6,2,2023,12,7,18,354,2669,-7794,-1810,-1482,-5979,-3971,
1534,6,2,2023,12,7,18,364,3215,-4923,186,734,-5277,-4876,
1535,6,2,2023,12,7,18,374,643,-4760,1637,987,-4321,-5892,
1536,6,2,2023,12,7,18,384,-708,-5261,3380,817,-4442,-7098,
1537,6,2,2023,12,7,18,394,-1590,-5395,3737,715,-5944,-8897,
1538,6,2,2023,12,7,18,404,-1244,-2792,3309,1258,-7448,-11096,
1539,6,2,2023,12,7,18,414,-607,-524,3180,1055,-8438,-11271,
1540,6,2,2023,12,7,18,424,-961,-1484,3103,-28,-9043,-10210,
1541,6,2,2023,12,7,18,434,-1249,-742,2753,457,-9382,-10198,
1542,6,2,2023,12,7,18,444,-2046,344,2535,694,-9545,-9830,
1543,6,2,2023,12,7,18,454,-1704,1225,3009,597,-9678,-9056,
1544,6,2,2023,12,7,18,464,-1803,1411,3846,-52,-9916,-8182,
1545,6,2,2023,12,7,18,474,-2516,-308,4470,-910,-10210,-6793,
1546,6,2,2023,12,7,18,484,-2792,-1759,5180,-1219,-10456,-6001,
1547,6,2,2023,12,7,18,494,-3009,-2910,5768,-1429,-10731,-5794,
1548,6,2,2023,12,7,18,504,-3196,-3735,6148,-1531,-10871,-5873,
1549,6,2,2023,12,7,18,514,-3378,-4125,6284,-1627,-10797,-6133,
1550,6,2,2023,12,7,18,524,-4126,-3683,6791,-1955,-10463,-6494,
1551,6,2,2023,12,7,18,534,-5306,-2856,7385,-2458,-10036,-6775,
1552,6,2,2023,12,7,18,544,-6127,-2348,7618,-2834,-9689,-6704,
1553,6,2,2023,12,7,18,554,-6440,-2299,7754,-3086,-9326,-6238,
1554,6,2,2023,12,7,18,564,-6819,-3375,8248,-3515,-8912,-5425,
1555,6,2,2023,12,7,18,574,-8625,-5667,9521,-3846,-8550,-4666,
1556,6,2,2023,12,7,18,584,-10631,-9271,8758,-3810,-8875,-4403,
1557,6,2,2023,12,7,18,594,-12107,-10048,4039,-1460,-9300,-5245,
1558,6,2,2023,12,7,18,604,-10077,-4320,-411,1546,-9131,-7190,
1559,6,2,2023,12,7,18,614,-8534,-751,-3693,1794,-7664,-7035,
1560,6,2,2023,12,7,18,624,-9399,2020,-4200,368,-4540,-6912,
1561,6,2,2023,12,7,18,634,-11473,2895,-2356,-2956,-2284,-7347,
1562,6,2,2023,12,7,18,644,-14734,237,-917,-4903,-878,-6853,
1563,6,2,2023,12,7,18,654,-16063,480,-1092,-2894,286,-6658,
1564,6,2,2023,12,7,18,664,-13900,3947,-1406,519,1973,-5622,
1565,6,2,2023,12,7,18,674,-10953,4522,110,2714,3796,-2631,
1566,6,2,2023,12,7,18,684,-9822,588,2249,2943,4517,-34,
1567,6,2,2023,12,7,18,694,-8385,617,4125,4024,4540,692,
1568,6,2,2023,12,7,18,704,-2085,-1115,3896,2674,3277,791,
1569,6,2,2023,12,7,18,714,3570,-1128,5270,2246,2201,876,
1570,6,2,2023,12,7,18,724,14270,-1652,2525,2005,2259,2705,
1571,6,2,2023,12,7,18,734,2288,486,-2302,3921,6421,4622,
1572,6,2,2023,12,7,18,744,-2044,921,4906,2728,8795,4697,
1573,6,2,2023,12,7,18,754,-8422,-6535,12019,589,8859,4371,
1574,6,2,2023,12,7,18,764,-4996,-4598,11432,4753,6792,4172,
1575,6,2,2023,12,7,18,774,-2068,-2774,6063,4802,5354,3385,
1576,6,2,2023,12,7,18,784,-2289,-4186,4091,4393,5096,2945,
1577,6,2,2023,12,7,18,794,-5150,-4599,6352,3968,4531,3021,
1578,6,2,2023,12,7,18,804,-4080,-1315,6707,3073,3070,2843,
1579,6,2,2023,12,7,18,814,-459,-1641,4308,1354,1971,2045,
1580,6,2,2023,12,7,18,824,-778,-2658,3380,1250,1803,1903,
1581,6,2,2023,12,7,18,834,-2124,-3310,4085,1455,1584,1942,
1582,6,2,2023,12,7,18,844,-1361,-1865,4503,1244,1171,1106,
1583,6,2,2023,12,7,18,854,-1051,-1349,4231,1272,858,608,
1584,6,2,2023,12,7,18,864,-1329,-2247,3947,778,481,685,
1585,6,2,2023,12,7,18,874,-1068,-1852,3792,596,247,415,
1586,6,2,2023,12,7,18,884,-914,-1318,3948,389,227,207,
1587,6,2,2023,12,7,18,894,-956,-1553,3843,25,219,187,
1588,6,2,2023,12,7,18,904,-905,-1780,3680,-298,235,123,
1589,6,2,2023,12,7,18,914,-820,-1726,3611,-473,278,53,
1590,6,2,2023,12,7,18,924,-789,-1878,3531,-599,362,29,
1591,6,2,2023,12,7,18,934,-952,-2037,3545,-606,432,35,
1592,6,2,2023,12,7,18,944,-924,-1978,3479,-548,395,22,
1593,6,2,2023,12,7,18,954,-865,-1922,3439,-465,337,55,
1594,6,2,2023,12,7,18,964,-833,-1986,3363,-361,281,130,
1595,6,2,2023,12,7,18,974,-837,-1936,3391,-161,271,157,
1596,6,2,2023,12,7,18,984,-879,-1968,3484,137,238,167,
1597,6,2,2023,12,7,18,994,-846,-1806,3412,297,182,131,
1598,6,2,2023,12,7,19,4,-861,-1844,3450,286,173,190,
1599,6,2,2023,12,7,19,14,-820,-1866,3439,284,132,262,
1600,6,2,2023,12,7,19,24,-759,-1835,3387,306,94,349,
1601,6,2,2023,12,7,19,34,-922,-1935,3428,313,89,478,
1602,6,2,2023,12,7,19,44,-1063,-1857,3642,320,68,489,
1603,6,2,2023,12,7,19,54,-1026,-1839,3605,254,-48,428,
1604,6,2,2023,12,7,19,64,-986,-1834,3527,264,-66,375,
1605,6,2,2023,12,7,19,74,-1022,-1857,3572,345,-20,352,
1606,6,2,2023,12,7,19,84,-996,-1866,3581,389,-44,311,
1607,6,2,2023,12,7,19,94,-1087,-1818,3568,397,-54,277,
1608,6,2,2023,12,7,19,104,-1054,-1776,3609,442,8,150,
1609,6,2,2023,12,7,19,114,-909,-1783,3367,428,19,94,
1610,6,2,2023,12,7,19,124,-995,-1720,3621,566,185,99,
1611,6,2,2023,12,7,19,134,-1026,-1702,3602,475,153,83,
1612,6,2,2023,12,7,19,144,-903,-1655,3478,547,176,63,
1613,6,2,2023,12,7,19,154,-990,-1780,3619,409,153,131,
1614,6,2,2023,12,7,19,164,-949,-1687,3345,637,231,106,
1615,6,2,2023,12,7,19,174,-903,-1710,3616,434,220,144,
1616,6,2,2023,12,7,19,194,-952,-1636,3619,418,303,149,
1617,6,2,2023,12,7,19,204,-956,-1737,3625,310,335,181,
1618,6,2,2023,12,7,19,214,-931,-1646,3518,236,372,214,
1619,6,2,2023,12,7,19,224,-909,-1635,3688,146,464,252,
1620,6,2,2023,12,7,19,234,-969,-1667,3613,-63,520,309,
1621,6,2,2023,12,7,19,244,-1007,-1731,3609,-174,547,373,
1622,6,2,2023,12,7,19,254,-936,-1736,3684,-393,575,423,
1623,6,2,2023,12,7,19,264,-951,-1691,3767,-632,724,541,
1624,6,2,2023,12,7,19,274,-825,-1699,3690,-1029,846,666,
1625,6,2,2023,12,7,19,284,-983,-2168,3826,-1553,1097,933,
1626,6,2,2023,12,7,19,294,-640,-1936,3399,-2219,1208,1145,
1627,6,2,2023,12,7,19,304,-459,-1990,3483,-2850,1724,1579,
1628,6,2,2023,12,7,19,314,-316,-1758,3155,-3531,2102,2159,
1629,6,2,2023,12,7,19,324,432,-766,3583,-4461,2797,2767,
1630,6,2,2023,12,7,19,334,1022,-2036,5152,-5093,3862,3762,
1631,6,2,2023,12,7,19,344,1280,-4563,4353,-2790,4768,4724,
1632,6,2,2023,12,7,19,354,685,-4397,3801,442,6080,5641,
1633,6,2,2023,12,7,19,364,292,-3623,3708,2534,7608,6692,
1634,6,2,2023,12,7,19,374,-241,-3005,4138,3580,9392,8092,
1635,6,2,2023,12,7,19,384,-1653,-2567,3931,3131,11868,8797,
1636,6,2,2023,12,7,19,394,-3507,-1662,4642,1061,14825,9767,
1637,6,2,2023,12,7,19,404,-4766,-2452,6454,-2212,16833,11248,
1638,6,2,2023,12,7,19,414,-4862,-3209,7157,-4612,17623,12443,
1639,6,2,2023,12,7,19,424,-4765,-5524,7453,-5091,17554,12988,
1640,6,2,2023,12,7,19,434,-5561,-6811,6491,-3627,16462,12920,
1641,6,2,2023,12,7,19,444,-6461,-5825,7446,-1801,15353,12821,
1642,6,2,2023,12,7,19,454,-3901,-5741,9627,-2515,13623,11483,
1643,6,2,2023,12,7,19,464,-121,-9830,10099,-3390,11166,9521,
1644,6,2,2023,12,7,19,474,-657,-12294,4704,-3111,6177,8670,
1645,6,2,2023,12,7,19,484,-7258,-9929,10155,-1394,496,6223,
1646,6,2,2023,12,7,19,494,102,-11251,8994,-3130,-3876,-844,
1647,6,2,2023,12,7,19,504,2441,-9978,-519,-3632,-5071,-3693,
1648,6,2,2023,12,7,19,514,1494,-6822,491,98,-3871,-4842,
1649,6,2,2023,12,7,19,524,1553,-4314,132,1382,-4320,-5506,
1650,6,2,2023,12,7,19,534,1727,-3067,555,1662,-3562,-6392,
1651,6,2,2023,12,7,19,544,199,-2840,1931,1389,-3132,-7275,
1652,6,2,2023,12,7,19,554,-1077,-3409,3623,693,-3941,-8110,
1653,6,2,2023,12,7,19,564,-1789,-2905,4624,24,-5636,-9474,
1654,6,2,2023,12,7,19,574,-1759,-1344,4516,159,-7340,-9891,
1655,6,2,2023,12,7,19,584,-1661,-1720,3608,-1032,-8444,-9564,
1656,6,2,2023,12,7,19,594,-1196,-982,3206,-1128,-8975,-9789,
1657,6,2,2023,12,7,19,604,-1362,-450,2598,-774,-9316,-9556,
1658,6,2,2023,12,7,19,614,-1982,-142,2857,-256,-9159,-8927,
1659,6,2,2023,12,7,19,624,-2262,493,3512,437,-9015,-8178,
1660,6,2,2023,12,7,19,634,-2348,424,4042,266,-9286,-7267,
1661,6,2,2023,12,7,19,644,-2606,-430,4730,-119,-9579,-6472,
1662,6,2,2023,12,7,19,654,-2926,-1453,5246,-331,-9835,-5882,
1663,6,2,2023,12,7,19,664,-3043,-2308,5431,-459,-10066,-5538,
1664,6,2,2023,12,7,19,674,-3084,-2945,5567,-635,-10194,-5506,
1665,6,2,2023,12,7,19,684,-3302,-3816,5806,-976,-10109,-5716,
1666,6,2,2023,12,7,19,694,-3653,-4759,6128,-1299,-9801,-6075,
1667,6,2,2023,12,7,19,704,-4164,-5263,6445,-1598,-9461,-6452,
1668,6,2,2023,12,7,19,714,-4948,-5416,6632,-1915,-9079,-6904,
1669,6,2,2023,12,7,19,724,-5994,-5324,6414,-2171,-8612,-7527,
1670,6,2,2023,12,7,19,734,-7168,-5438,6408,-2500,-7916,-8049,
1671,6,2,2023,12,7,19,744,-8881,-5836,7410,-2667,-7103,-8363,
1672,6,2,2023,12,7,19,754,-10460,-6705,7393,-2104,-6724,-8505,
1673,6,2,2023,12,7,19,764,-12863,-4468,5173,1065,-6596,-8296,
1674,6,2,2023,12,7,19,774,-13399,-3310,189,2318,-6771,-7962,
1675,6,2,2023,12,7,19,784,-11408,368,-2931,3558,-6169,-6987,
1676,6,2,2023,12,7,19,794,-13078,2087,-4264,3186,-4003,-5242,
1677,6,2,2023,12,7,19,804,-13285,5601,-4562,1494,-2827,-3707,
1678,6,2,2023,12,7,19,814,-13615,5277,-4033,-2622,-1896,-2211,
1679,6,2,2023,12,7,19,824,-13057,1311,-3514,-5138,-526,-1218,
1680,6,2,2023,12,7,19,834,-11347,-2220,-2137,-3311,1386,-634,
1681,6,2,2023,12,7,19,844,-10003,-3593,-55,383,3464,-224,
1682,6,2,2023,12,7,19,854,-6316,-2944,1978,3726,4871,-484,
1683,6,2,2023,12,7,19,864,112,-1836,5506,4494,4239,-835,
1684,6,2,2023,12,7,19,874,12443,2014,8317,4685,3987,-546,
1685,6,2,2023,12,7,19,884,2104,5732,4136,5777,6275,2778,
1686,6,2,2023,12,7,19,894,-2691,5358,6801,4653,7188,5371,
1687,6,2,2023,12,7,19,904,-5685,-4945,9128,3708,6759,5261,
1688,6,2,2023,12,7,19,914,-3347,-6248,7647,5364,6228,4015,
1689,6,2,2023,12,7,19,924,-3012,-3470,5349,5585,6413,2903,
1690,6,2,2023,12,7,19,934,-4386,-2701,6126,4103,5749,2902,
1691,6,2,2023,12,7,19,944,-5264,-2123,7137,2555,4642,3194,
1692,6,2,2023,12,7,19,954,-1902,-1962,5283,369,3309,2445,
1693,6,2,2023,12,7,19,964,-602,-2795,3732,-232,2782,1879,
1694,6,2,2023,12,7,19,974,-1604,-2656,3816,300,2453,1858,
1695,6,2,2023,12,7,19,984,-2107,-2162,4760,423,2067,1261,
1696,6,2,2023,12,7,19,994,-1106,-1888,4116,544,1286,637,
1697,6,2,2023,12,7,20,4,-902,-2161,3963,560,834,405,
1698,6,2,2023,12,7,20,14,-1425,-1822,4040,446,541,5,
1699,6,2,2023,12,7,20,24,-1278,-1353,3815,401,240,72,
1700,6,2,2023,12,7,20,34,-1083,-1726,3824,280,209,304,
1701,6,2,2023,12,7,20,54,-1026,-1620,3728,6,129,140,
1702,6,2,2023,12,7,20,64,-963,-1757,3590,-166,121,165,
1703,6,2,2023,12,7,20,74,-914,-1814,3463,-236,163,190,
1704,6,2,2023,12,7,20,84,-985,-1875,3503,-282,235,214,
1705,6,2,2023,12,7,20,94,-1010,-1832,3538,-286,226,220,
1706,6,2,2023,12,7,20,104,-1011,-1859,3492,-288,194,234,
1707,6,2,2023,12,7,20,114,-1038,-1933,3582,-295,167,223,
1708,6,2,2023,12,7,20,124,-1073,-1886,3536,-42,124,154,
1709,6,2,2023,12,7,20,134,-1033,-1777,3533,43,95,112,
1710,6,2,2023,12,7,20,144,-1062,-1818,3508,15,97,112,
1711,6,2,2023,12,7,20,154,-954,-1732,3594,38,94,102,
1712,6,2,2023,12,7,20,164,-1054,-1802,3475,16,110,116,
1713,6,2,2023,12,7,20,174,-1054,-1802,3475,16,110,116,
1714,6,2,2023,12,7,20,184,-1079,-1758,3550,21,105,117,
1715,6,2,2023,12,7,20,194,-921,-1695,3570,35,99,105,
1716,6,2,2023,12,7,20,204,-1142,-1820,3447,-72,102,138,
1717,6,2,2023,12,7,20,214,-981,-1740,3597,8,94,89,
1718,6,2,2023,12,7,20,224,-1058,-1770,3515,-41,91,114,
1719,6,2,2023,12,7,20,234,-1010,-1765,3513,38,105,93,
1720,6,2,2023,12,7,20,244,-1079,-1836,3442,44,115,106,
1721,6,2,2023,12,7,20,254,-1057,-1783,3498,123,116,83,
1722,6,2,2023,12,7,20,264,-1047,-1775,3506,165,122,76,
1723,6,2,2023,12,7,20,274,-1060,-1794,3438,191,109,73,
1724,6,2,2023,12,7,20,284,-1097,-1823,3457,254,114,73,
1725,6,2,2023,12,7,20,294,-1019,-1740,3481,330,103,70,
1726,6,2,2023,12,7,20,304,-1066,-1665,3565,362,141,87,
1727,6,2,2023,12,7,20,314,-1056,-1675,3536,347,119,84,
1728,6,2,2023,12,7,20,324,-1033,-1662,3501,360,139,106,
1729,6,2,2023,12,7,20,334,-1049,-1728,3521,382,219,117,
1730,6,2,2023,12,7,20,344,-1009,-1591,3539,262,171,137,
1731,6,2,2023,12,7,20,354,-1100,-1795,3553,234,298,179,
1732,6,2,2023,12,7,20,364,-960,-1709,3525,176,294,169,
1733,6,2,2023,12,7,20,374,-1039,-1699,3590,-51,308,222,
1734,6,2,2023,12,7,20,384,-1155,-1825,3441,-92,418,266,
1735,6,2,2023,12,7,20,394,-970,-1612,3603,-255,358,274,
1736,6,2,2023,12,7,20,404,-1124,-1798,3659,-361,513,358,
1737,6,2,2023,12,7,20,414,-981,-1703,3512,-503,518,402,
1738,6,2,2023,12,7,20,424,-982,-1676,3687,-754,694,512,
1739,6,2,2023,12,7,20,434,-1019,-1738,3569,-1066,860,613,
1740,6,2,2023,12,7,20,444,-1037,-1917,3572,-1448,1035,808,
1741,6,2,2023,12,7,20,454,-919,-1828,3475,-1931,1205,982,
1742,6,2,2023,12,7,20,464,-752,-1924,3427,-2405,1472,1245,
1743,6,2,2023,12,7,20,474,-610,-1576,3385,-2668,1799,1590,
1744,6,2,2023,12,7,20,484,-413,-1279,3431,-3398,2233,1973,
1745,6,2,2023,12,7,20,494,-131,-1232,3748,-3991,2797,2485,
1746,6,2,2023,12,7,20,504,285,-2631,3962,-4056,3409,3121,
1747,6,2,2023,12,7,20,514,361,-3630,4392,-2014,4117,3853,
1748,6,2,2023,12,7,20,524,302,-3745,3496,-42,4946,4399,
1749,6,2,2023,12,7,20,534,124,-3688,3631,1832,6277,5027,
1750,6,2,2023,12,7,20,544,-555,-3371,3995,3143,7637,5935,
1751,6,2,2023,12,7,20,554,-966,-2149,3818,3532,9254,6555,
1752,6,2,2023,12,7,20,564,-2058,-1933,3904,1683,11404,7414,
1753,6,2,2023,12,7,20,574,-3397,-2159,4472,-481,13959,8668,
1754,6,2,2023,12,7,20,584,-4699,-2440,5690,-2581,15716,9853,
1755,6,2,2023,12,7,20,594,-4822,-4086,6757,-4912,16872,11182,
1756,6,2,2023,12,7,20,604,-4895,-4305,6986,-5584,16940,11712,
1757,6,2,2023,12,7,20,614,-5041,-5470,6351,-4406,15989,11688,
1758,6,2,2023,12,7,20,624,-6342,-6371,7190,-2437,15032,11443,
1759,6,2,2023,12,7,20,634,-4201,-5464,8848,-1898,13345,10242,
1760,6,2,2023,12,7,20,644,-99,-6405,9781,-3029,11087,8363,
1761,6,2,2023,12,7,20,654,-118,-11231,7657,-3972,6925,6929,
1762,6,2,2023,12,7,20,664,-8388,-8783,8119,-1108,1293,6970,
1763,6,2,2023,12,7,20,674,-2541,-9339,12263,-2526,-2712,1843,
1764,6,2,2023,12,7,20,684,2016,-8878,4825,-4785,-6215,-2367,
1765,6,2,2023,12,7,20,694,1855,-8560,-995,-3022,-6888,-3692,
1766,6,2,2023,12,7,20,704,1918,-6171,254,244,-5899,-4526,
1767,6,2,2023,12,7,20,714,1607,-4042,1266,1823,-5620,-5157,
1768,6,2,2023,12,7,20,724,-42,-3565,1835,2035,-5358,-6116,
1769,6,2,2023,12,7,20,734,-626,-2894,2763,1695,-5640,-7138,
1770,6,2,2023,12,7,20,744,-652,-1992,2523,1423,-6829,-7577,
1771,6,2,2023,12,7,20,754,-712,-1570,2594,701,-7682,-7830,
1772,6,2,2023,12,7,20,764,-809,-1128,2720,22,-8064,-8053,
1773,6,2,2023,12,7,20,774,-723,-630,2644,-114,-8416,-8066,
1774,6,2,2023,12,7,20,784,-783,-537,2703,-220,-8699,-7807,
1775,6,2,2023,12,7,20,794,-1110,-582,3291,-320,-8891,-7352,
1776,6,2,2023,12,7,20,804,-2037,-447,4040,-336,-9122,-6889,
1777,6,2,2023,12,7,20,814,-2784,-672,4648,-693,-9445,-6490,
1778,6,2,2023,12,7,20,824,-2818,-1456,4933,-1278,-9861,-6216,
1779,6,2,2023,12,7,20,834,-3185,-2098,5250,-1553,-10184,-6065,
1780,6,2,2023,12,7,20,844,-3523,-2419,5420,-1766,-10402,-6042,
1781,6,2,2023,12,7,20,854,-3513,-2668,5285,-1979,-10458,-6097,
1782,6,2,2023,12,7,20,864,-3486,-3225,5311,-2306,-10229,-6136,
1783,6,2,2023,12,7,20,874,-3793,-4049,5605,-2685,-9752,-6198,
1784,6,2,2023,12,7,20,884,-4263,-4580,5977,-2790,-9178,-6365,
1785,6,2,2023,12,7,20,894,-5105,-4865,6178,-2595,-8669,-6616,
1786,6,2,2023,12,7,20,914,-7913,-4855,7187,-2675,-7633,-7178,
1787,6,2,2023,12,7,20,924,-9369,-5028,7403,-2757,-7378,-7341,
1788,6,2,2023,12,7,20,934,-10449,-4959,6819,-2560,-7374,-7420,
1789,6,2,2023,12,7,20,944,-10311,-3672,4276,-1286,-7225,-7114,
1790,6,2,2023,12,7,20,954,-13074,-2809,2347,77,-6542,-6788,
1791,6,2,2023,12,7,20,964,-10928,-1226,-1170,767,-6242,-6433,
1792,6,2,2023,12,7,20,974,-10854,885,-2400,1912,-5025,-5440,
1793,6,2,2023,12,7,20,984,-12105,2285,-2785,1349,-3164,-4101,
1794,6,2,2023,12,7,20,994,-12081,4457,-3241,-124,-2072,-3414,
1795,6,2,2023,12,7,21,4,-11821,4330,-3097,-2555,-741,-2342,
1796,6,2,2023,12,7,21,14,-10495,1353,-2473,-3637,924,-721,
1797,6,2,2023,12,7,21,24,-9330,-1761,-364,-2349,2660,61,
1798,6,2,2023,12,7,21,34,-8099,-3967,1451,-91,3761,237,
1799,6,2,2023,12,7,21,44,-5710,-5375,1957,2792,4246,-220,
1800,6,2,2023,12,7,21,54,-3669,-4416,2322,4891,4708,-1200,
1801,6,2,2023,12,7,21,64,1651,-1963,4677,4896,4368,-2125,
1802,6,2,2023,12,7,21,74,14752,-271,5194,5078,4069,-1594,
1803,6,2,2023,12,7,21,84,1439,6835,5146,7394,7148,1952,
1804,6,2,2023,12,7,21,94,-2107,10390,6484,5084,7489,4418,
1805,6,2,2023,12,7,21,104,-4684,-908,8386,2490,6699,4494,
1806,6,2,2023,12,7,21,114,-4110,-3906,10010,6106,6031,4612,
1807,6,2,2023,12,7,21,124,-5545,-6314,7289,6797,5846,3696,
1808,6,2,2023,12,7,21,134,-7792,-4876,6766,3948,5116,3521,
1809,6,2,2023,12,7,21,144,-1965,-2546,4140,181,3386,2208,
1810,6,2,2023,12,7,21,154,760,-1280,4817,-395,2907,1701,
1811,6,2,2023,12,7,21,164,-1933,-1122,4694,603,2718,1854,
1812,6,2,2023,12,7,21,174,-2453,-3611,3965,-310,2260,1679,
1813,6,2,2023,12,7,21,184,-960,-2508,3466,-314,1586,801,
1814,6,2,2023,12,7,21,194,-1379,-1785,4728,303,1274,367,
1815,6,2,2023,12,7,21,204,-1632,-1669,3832,239,478,24,
1816,6,2,2023,12,7,21,214,-1038,-2203,3715,87,162,239,
1817,6,2,2023,12,7,21,224,-930,-1527,3721,323,97,65,
1818,6,2,2023,12,7,21,234,-1166,-1848,3652,42,-5,-8,
1819,6,2,2023,12,7,21,244,-1096,-1694,3463,208,9,61,
1820,6,2,2023,12,7,21,254,-975,-1919,3632,164,92,204,
1821,6,2,2023,12,7,21,264,-983,-1694,3566,144,63,152,
1822,6,2,2023,12,7,21,274,-960,-1693,3618,6,108,175,
1823,6,2,2023,12,7,21,284,-980,-1797,3551,-112,136,217,
1824,6,2,2023,12,7,21,294,-1002,-1876,3472,-192,152,236,
1825,6,2,2023,12,7,21,304,-1086,-1960,3558,-87,181,226,
1826,6,2,2023,12,7,21,314,-1000,-1838,3489,133,191,180,
1827,6,2,2023,12,7,21,324,-1007,-1747,3559,108,236,174,
1828,6,2,2023,12,7,21,334,-1020,-1809,3510,28,249,180,
1829,6,2,2023,12,7,21,344,-1160,-1887,3568,-6,268,183,
1830,6,2,2023,12,7,21,354,-832,-1649,3452,-54,178,144,
1831,6,2,2023,12,7,21,364,-1197,-1867,3557,-35,370,207,
1832,6,2,2023,12,7,21,374,-1122,-1868,3555,-108,227,175,
1833,6,2,2023,12,7,21,384,-928,-1633,3441,-135,188,149,
1834,6,2,2023,12,7,21,394,-1197,-1831,3600,-118,309,192,
1835,6,2,2023,12,7,21,404,-1043,-1766,3447,-119,209,163,
1836,6,2,2023,12,7,21,414,-1131,-1799,3562,-109,245,178,
1837,6,2,2023,12,7,21,424,-1109,-1806,3500,-149,184,165,
1838,6,2,2023,12,7,21,434,-1108,-1858,3419,-164,148,164,
1839,6,2,2023,12,7,21,444,-1129,-1819,3464,-155,144,142,
1840,6,2,2023,12,7,21,454,-1136,-1787,3488,-122,118,124,
1841,6,2,2023,12,7,21,464,-1127,-1776,3460,-107,91,109,
1842,6,2,2023,12,7,21,474,-1108,-1777,3486,-77,91,95,
1843,6,2,2023,12,7,21,484,-1162,-1788,3488,-28,94,83,
1844,6,2,2023,12,7,21,494,-1147,-1815,3503,-22,58,55,
1845,6,2,2023,12,7,21,504,-1139,-1876,3415,-30,32,44,
1846,6,2,2023,12,7,21,514,-1090,-1801,3480,18,19,17,
1847,6,2,2023,12,7,21,524,-1189,-1901,3447,-14,7,28,
1848,6,2,2023,12,7,21,534,-1011,-1680,3524,40,-15,-7,
1849,6,2,2023,12,7,21,544,-1098,-1786,3489,-34,17,53,
1850,6,2,2023,12,7,21,554,-1142,-1903,3311,41,77,48,
1851,6,2,2023,12,7,21,564,-977,-1684,3698,-57,85,44,
1852,6,2,2023,12,7,21,574,-1129,-1862,3427,-111,96,130,
1853,6,2,2023,12,7,21,584,-1116,-1902,3187,-227,101,125,
1854,6,2,2023,12,7,21,594,-1030,-1619,3832,-210,265,113,
1855,6,2,2023,12,7,21,604,-1063,-1742,3566,-419,166,215,
1856,6,2,2023,12,7,21,614,-1049,-1800,3360,-542,218,251,
1857,6,2,2023,12,7,21,624,-1184,-1949,3673,-790,303,344,
1858,6,2,2023,12,7,21,634,-1057,-1927,3435,-992,310,318,
1859,6,2,2023,12,7,21,644,-970,-1762,3705,-1301,381,406,
1860,6,2,2023,12,7,21,654,-996,-2048,3525,-1622,504,633,
1861,6,2,2023,12,7,21,664,-587,-1735,3309,-2138,750,815,
1862,6,2,2023,12,7,21,674,-818,-1953,3514,-2605,1333,1200,
1863,6,2,2023,12,7,21,684,-601,-1755,3471,-3195,1624,1481,
1864,6,2,2023,12,7,21,694,-324,-1146,3392,-3556,2213,1783,
1865,6,2,2023,12,7,21,704,327,-1436,3534,-4527,3044,2246,
1866,6,2,2023,12,7,21,714,299,-2660,3227,-4171,4211,2761,
1867,6,2,2023,12,7,21,724,-258,-3698,4963,-2649,5189,3455,
1868,6,2,2023,12,7,21,734,42,-3521,3861,-1494,5407,3729,
1869,6,2,2023,12,7,21,744,-658,-2982,3958,-1135,6372,3871,
1870,6,2,2023,12,7,21,754,-1703,-2054,4469,-1584,7539,4328,
1871,6,2,2023,12,7,21,774,-2155,-3233,4856,-3453,9621,5459,
1872,6,2,2023,12,7,21,784,-3227,-3703,5745,-3490,10213,5814,
1873,6,2,2023,12,7,21,794,-4282,-3997,6578,-3610,10142,5886,
1874,6,2,2023,12,7,21,804,-4044,-4458,6636,-3772,9354,5437,
1875,6,2,2023,12,7,21,814,-1222,-6613,8079,-3811,6680,4423,
1876,6,2,2023,12,7,21,824,-247,-6913,6232,-2833,3418,3149,
1877,6,2,2023,12,7,21,834,-1348,-5868,4371,-579,1757,2339,
1878,6,2,2023,12,7,21,844,431,-3226,3272,430,-182,2441,
1879,6,2,2023,12,7,21,854,-292,-5742,4001,1433,-1108,2674,
1880,6,2,2023,12,7,21,864,2993,-2850,1409,2732,-1698,1825,
1881,6,2,2023,12,7,21,874,2714,-3405,192,2015,-1688,1466,
1882,6,2,2023,12,7,21,884,1565,-4383,878,2177,-1486,625,
1883,6,2,2023,12,7,21,894,565,-4662,1168,2293,-1552,-530,
1884,6,2,2023,12,7,21,904,459,-3007,1338,2678,-2143,-1437,
1885,6,2,2023,12,7,21,914,1035,-1802,1618,2250,-2944,-2153,
1886,6,2,2023,12,7,21,924,947,-1803,1423,1287,-3410,-2927,
1887,6,2,2023,12,7,21,934,432,-1789,1814,1055,-3702,-3213,
1888,6,2,2023,12,7,21,944,-420,-1807,2562,1323,-4068,-3168,
1889,6,2,2023,12,7,21,954,-944,-1517,2969,1587,-4752,-3155,
1890,6,2,2023,12,7,21,964,-1192,-1365,3029,1456,-5598,-3117,
1891,6,2,2023,12,7,21,974,-1446,-2112,2528,1070,-6299,-3155,
1892,6,2,2023,12,7,21,984,-1537,-2779,1715,1010,-6632,-3355,
1893,6,2,2023,12,7,21,994,-1732,-3034,1181,1132,-6607,-3701,
1894,6,2,2023,12,7,22,4,-2176,-2881,1070,1057,-6333,-4255,
1895,6,2,2023,12,7,22,14,-2638,-2647,1188,553,-5941,-4971,
1896,6,2,2023,12,7,22,24,-3310,-1836,1546,-134,-5465,-5715,
1897,6,2,2023,12,7,22,34,-4431,86,2568,-804,-5007,-6237,
1898,6,2,2023,12,7,22,44,-5788,-166,3331,-1818,-4676,-6005,
1899,6,2,2023,12,7,22,54,-6505,-1267,4101,-2050,-4416,-5231,
1900,6,2,2023,12,7,22,64,-7131,-1233,4215,-991,-4248,-4438,
1901,6,2,2023,12,7,22,74,-7515,-1006,4225,-16,-4065,-3666,
1902,6,2,2023,12,7,22,84,-7682,-1104,4254,412,-3941,-2891,
1903,6,2,2023,12,7,22,94,-7502,-1374,3388,686,-3929,-2216,
1904,6,2,2023,12,7,22,104,-6718,-1528,2160,794,-3772,-1654,
1905,6,2,2023,12,7,22,114,-5819,-1707,1442,829,-3292,-1207,
1906,6,2,2023,12,7,22,124,-4924,-2191,1076,874,-2621,-897,
1907,6,2,2023,12,7,22,134,-4473,-2298,1287,870,-1827,-837,
1908,6,2,2023,12,7,22,144,-4240,-2358,1547,452,-1085,-1098,
1909,6,2,2023,12,7,22,154,-3665,-2394,1217,248,-410,-1537,
1910,6,2,2023,12,7,22,164,-2609,-2656,701,627,464,-1889,
1911,6,2,2023,12,7,22,174,-2750,-2148,622,2903,2198,-1734,
1912,6,2,2023,12,7,22,184,-6184,-3320,2252,5995,4005,-794,
1913,6,2,2023,12,7,22,194,-6000,-603,3547,9095,4554,826,
1914,6,2,2023,12,7,22,204,-4422,2388,4777,8414,4127,315,
1915,6,2,2023,12,7,22,214,-7045,-686,9706,3249,4008,-500,
1916,6,2,2023,12,7,22,224,-720,-2152,3510,-622,-649,-260,
1917,6,2,2023,12,7,22,234,677,-2959,1130,1380,-1262,459,
1918,6,2,2023,12,7,22,244,-1649,-3500,4703,1812,101,460,
1919,6,2,2023,12,7,22,254,-791,87,4566,1330,-363,-667,
1920,6,2,2023,12,7,22,264,-980,-1179,3757,672,-591,45,
1921,6,2,2023,12,7,22,274,-748,-2833,2832,212,-601,485,
1922,6,2,2023,12,7,22,284,-867,-1076,3845,655,88,-187,
1923,6,2,2023,12,7,22,294,-956,-1089,3967,150,123,-95,
1924,6,2,2023,12,7,22,304,-898,-1577,3411,-204,64,60,
1925,6,2,2023,12,7,22,314,-1071,-1443,3740,-244,261,32,
1926,6,2,2023,12,7,22,324,-1035,-1693,3529,-446,206,79,
1927,6,2,2023,12,7,22,334,-1072,-1895,3461,-501,232,90,
1928,6,2,2023,12,7,22,344,-1125,-1910,3468,-457,220,75,
1929,6,2,2023,12,7,22,354,-1088,-1932,3407,-419,157,61,
1930,6,2,2023,12,7,22,364,-1110,-1894,3491,-319,129,44,
1931,6,2,2023,12,7,22,374,-1114,-1878,3456,-270,65,31,
1932,6,2,2023,12,7,22,384,-1100,-1878,3467,-226,24,32,
1933,6,2,2023,12,7,22,394,-1091,-1805,3518,-150,-5,21,
1934,6,2,2023,12,7,22,404,-1080,-1796,3514,-129,-45,19,
1935,6,2,2023,12,7,22,414,-1074,-1789,3533,-111,-60,18,
1936,6,2,2023,12,7,22,424,-1023,-1736,3510,-96,-68,8,
1937,6,2,2023,12,7,22,434,-1047,-1766,3564,-95,-46,18,
1938,6,2,2023,12,7,22,444,-1010,-1782,3491,-79,-53,9,
1939,6,2,2023,12,7,22,454,-1023,-1770,3514,-49,-12,6,
1940,6,2,2023,12,7,22,464,-1031,-1783,3500,-73,0,19,
1941,6,2,2023,12,7,22,474,-1036,-1783,3486,-93,18,37,
1942,6,2,2023,12,7,22,484,-1063,-1823,3535,-94,38,42,
1943,6,2,2023,12,7,22,494,-1064,-1798,3492,-59,31,42,
1944,6,2,2023,12,7,22,504,-1094,-1837,3493,-83,15,44,
1945,6,2,2023,12,7,22,514,-1076,-1816,3516,-60,4,36,
1946,6,2,2023,12,7,22,524,-1081,-1819,3492,-41,-16,33,
1947,6,2,2023,12,7,22,534,-1085,-1794,3506,-18,-24,26,
1948,6,2,2023,12,7,22,544,-1069,-1792,3526,-14,-26,18,
1949,6,2,2023,12,7,22,554,-1069,-1791,3492,-10,-42,15,
1950,6,2,2023,12,7,22,564,-1056,-1770,3515,1,-48,8,
1951,6,2,2023,12,7,22,574,-1045,-1780,3501,-1,-55,9,
1952,6,2,2023,12,7,22,584,-1046,-1767,3510,-1,-47,10,
1953,6,2,2023,12,7,22,594,-1041,-1753,3499,-10,-35,14,
1954,6,2,2023,12,7,22,604,-1057,-1770,3498,-12,-17,19,
1955,6,2,2023,12,7,22,614,-1052,-1776,3499,16,2,16,
1956,6,2,2023,12,7,22,634,-1059,-1800,3504,-19,-20,21,
1957,6,2,2023,12,7,22,644,-1065,-1796,3501,-7,-17,18,
1958,6,2,2023,12,7,22,654,-1055,-1798,3481,-8,-20,18,
1959,6,2,2023,12,7,22,664,-1061,-1792,3510,-1,-16,22,
1960,6,2,2023,12,7,22,674,-1059,-1803,3489,6,-22,21,
1961,6,2,2023,12,7,22,684,-1060,-1802,3496,23,-23,14,
1962,6,2,2023,12,7,22,694,-1053,-1804,3490,32,-32,13,
1963,6,2,2023,12,7,22,704,-1059,-1796,3501,35,-37,15,
1964,6,2,2023,12,7,22,714,-1057,-1772,3493,44,-39,14,
1965,6,2,2023,12,7,22,724,-1056,-1769,3514,54,-34,16,
1966,6,2,2023,12,7,22,734,-1044,-1764,3508,49,-32,16,
1967,6,2,2023,12,7,22,744,-1048,-1756,3524,47,-18,13,
1968,6,2,2023,12,7,22,754,-1048,-1745,3511,41,-16,22,
1969,6,2,2023,12,7,22,764,-1059,-1758,3518,41,-4,22,
1970,6,2,2023,12,7,22,774,-1052,-1753,3506,38,-3,18,
1971,6,2,2023,12,7,22,784,-1068,-1762,3516,38,-2,16,
1972,6,2,2023,12,7,22,794,-1063,-1772,3504,40,-16,8,
1973,6,2,2023,12,7,22,804,-1072,-1772,3499,44,-25,2,
1974,6,2,2023,12,7,22,814,-1070,-1763,3520,54,-32,-4,
1975,6,2,2023,12,7,22,824,-1053,-1757,3519,52,-41,-10,
1976,6,2,2023,12,7,22,834,-1055,-1755,3494,49,-48,-9,
1977,6,2,2023,12,7,22,844,-1056,-1746,3539,55,-44,-13,
1978,6,2,2023,12,7,22,854,-1043,-1755,3507,42,-52,-14,
1979,6,2,2023,12,7,22,864,-1055,-1749,3532,48,-41,-10,
1980,6,2,2023,12,7,22,874,-1053,-1746,3517,40,-46,-14,
1981,6,2,2023,12,7,22,884,-1042,-1739,3516,39,-45,-19,
1982,6,2,2023,12,7,22,894,-1040,-1747,3515,36,-43,-21,
1983,6,2,2023,12,7,22,904,-1050,-1743,3522,32,-36,-15,
1984,6,2,2023,12,7,22,914,-1038,-1735,3518,31,-35,-10,
1985,6,2,2023,12,7,22,924,-1046,-1727,3531,25,-33,-12,
1986,6,2,2023,12,7,22,934,-1050,-1755,3533,12,-38,-15,
1987,6,2,2023,12,7,22,944,-1040,-1772,3511,6,-47,-13,
1988,6,2,2023,12,7,22,954,-1047,-1777,3519,5,-46,-10,
1989,6,2,2023,12,7,22,964,-1038,-1766,3502,10,-52,-8,
1990,6,2,2023,12,7,22,974,-1040,-1754,3524,15,-47,-9,
1991,6,2,2023,12,7,22,984,-1040,-1754,3516,8,-53,-4,
1992,6,2,2023,12,7,22,994,-1036,-1757,3511,6,-49,-2,
1993,6,2,2023,12,7,23,4,-1032,-1760,3522,6,-43,-7,
1994,6,2,2023,12,7,23,14,-1028,-1762,3495,2,-41,-1,
1995,6,2,2023,12,7,23,24,-1035,-1747,3536,11,-24,3,
1996,6,2,2023,12,7,23,34,-1031,-1764,3516,6,-29,3,
1997,6,2,2023,12,7,23,44,-1035,-1743,3522,7,-21,3,
1998,6,2,2023,12,7,23,54,-1050,-1749,3523,6,-20,-1,
1999,6,2,2023,12,7,23,64,-1042,-1757,3508,9,-24,-3,
2000,6,2,2023,12,7,23,74,-1033,-1756,3509,9,-18,-2,
2001,6,2,2023,12,7,23,84,-1033,-1758,3518,14,-15,4,
2002,6,2,2023,12,7,23,94,-1034,-1761,3512,12,-20,2,
2003,6,2,2023,12,7,23,104,-1030,-1752,3529,13,-18,7,
2004,6,2,2023,12,7,23,114,-1035,-1747,3524,13,-17,7,
2005,6,2,2023,12,7,23,124,-1033,-1748,3516,10,-24,2,
2006,6,2,2023,12,7,23,134,-1034,-1761,3521,8,-24,0,
2007,6,2,2023,12,7,23,144,-1026,-1745,3525,5,-17,7,
2008,6,2,2023,12,7,23,154,-1024,-1753,3524,0,-12,10,
2009,6,2,2023,12,7,23,164,-1035,-1762,3526,-6,-9,15,
2010,6,2,2023,12,7,23,174,-1025,-1752,3525,-8,-11,12,
2011,6,2,2023,12,7,23,184,-1030,-1748,3515,-12,-10,16,
2012,6,2,2023,12,7,23,194,-1037,-1750,3532,-11,-4,20,
2013,6,2,2023,12,7,23,204,-1042,-1747,3521,-13,-3,20,
2014,6,2,2023,12,7,23,214,-1035,-1749,3531,-16,-2,15,
2015,6,2,2023,12,7,23,224,-1029,-1748,3520,-13,-4,20,
2016,6,2,2023,12,7,23,234,-1043,-1746,3533,-5,-6,15,
2017,6,2,2023,12,7,23,244,-1051,-1756,3527,-8,-7,11,
2018,6,2,2023,12,7,23,254,-1024,-1744,3525,-12,-10,12,
2019,6,2,2023,12,7,23,264,-1041,-1754,3531,-10,-6,14,
2020,6,2,2023,12,7,23,274,-1040,-1750,3526,-14,-3,13,
2021,6,2,2023,12,7,23,284,-1041,-1759,3517,-17,-1,16,
2022,6,2,2023,12,7,23,294,-1029,-1758,3521,-9,1,12,
2023,6,2,2023,12,7,23,304,-1040,-1752,3528,-8,1,15,
2024,6,2,2023,12,7,23,314,-1044,-1752,3525,-10,-4,18,
2025,6,2,2023,12,7,23,324,-1034,-1736,3528,-13,-9,17,
2026,6,2,2023,12,7,23,334,-1031,-1745,3520,-17,-7,14,
2027,6,2,2023,12,7,23,344,-1038,-1749,3521,-13,-6,15,
2028,6,2,2023,12,7,23,354,-1041,-1758,3518,-14,-6,14,
2029,6,2,2023,12,7,23,364,-1029,-1760,3521,-13,-11,11,
2030,6,2,2023,12,7,23,374,-1029,-1754,3530,-11,-7,11,
2031,6,2,2023,12,7,23,384,-1030,-1742,3519,-10,-10,13,
2032,6,2,2023,12,7,23,394,-1022,-1705,3537,-9,-3,13,
2033,6,2,2023,12,7,23,404,-1042,-1708,3552,-25,7,17,
2034,6,2,2023,12,7,23,414,-1034,-1734,3527,-49,-2,18,
2035,6,2,2023,12,7,23,424,-1040,-1770,3521,-65,4,19,
2036,6,2,2023,12,7,23,434,-1047,-1790,3512,-55,5,20,
2037,6,2,2023,12,7,23,444,-1046,-1781,3521,-47,0,22,
2038,6,2,2023,12,7,23,454,-1042,-1777,3509,-41,-10,22,
2039,6,2,2023,12,7,23,464,-1047,-1779,3506,-28,-3,18,
2040,6,2,2023,12,7,23,474,-1032,-1749,3542,-15,3,11,
2041,6,2,2023,12,7,23,494,-1045,-1749,3530,-14,-10,12,
2042,6,2,2023,12,7,23,504,-1050,-1768,3516,-16,-12,18,
2043,6,2,2023,12,7,23,514,-1042,-1760,3498,-5,-11,7,
2044,6,2,2023,12,7,23,524,-1033,-1743,3523,61,15,5,
2045,6,2,2023,12,7,23,534,-1044,-1744,3552,13,-6,9,
2046,6,2,2023,12,7,23,544,-1036,-1757,3500,-19,-25,7,
2047,6,2,2023,12,7,23,554,-1043,-1745,3534,4,-11,7,
2048,6,2,2023,12,7,23,564,-1039,-1746,3520,-1,-10,7,
2049,6,2,2023,12,7,23,574,-1037,-1754,3522,1,-8,5,
2050,6,2,2023,12,7,23,584,-1046,-1754,3520,1,-8,3,
2051,6,2,2023,12,7,23,594,-1044,-1753,3523,3,-8,3,
2052,6,2,2023,12,7,23,604,-1040,-1759,3524,6,-17,4,
2053,6,2,2023,12,7,23,614,-1040,-1757,3524,8,-17,-2,
2054,6,2,2023,12,7,23,624,-1040,-1754,3519,8,-21,-8,
2055,6,2,2023,12,7,23,634,-1042,-1756,3525,8,-25,-7,
2056,6,2,2023,12,7,23,644,-1044,-1757,3525,12,-25,-7,
2057,6,2,2023,12,7,23,654,-1031,-1743,3537,9,-26,-5,
2058,6,2,2023,12,7,23,664,-1036,-1745,3525,5,-21,-5,
2059,6,2,2023,12,7,23,674,-1039,-1755,3516,5,-19,-7,
2060,6,2,2023,12,7,23,684,-1027,-1758,3516,5,-23,-9,
2061,6,2,2023,12,7,23,694,-1028,-1755,3518,3,-22,-5,
2062,6,2,2023,12,7,23,704,-1039,-1758,3523,2,-18,-2,
2063,6,2,2023,12,7,23,714,-1034,-1756,3515,5,-18,-2,
2064,6,2,2023,12,7,23,724,-1035,-1752,3517,5,-13,-3,
2065,6,2,2023,12,7,23,734,-1026,-1746,3527,4,-10,-2,
2066,6,2,2023,12,7,23,744,-1039,-1734,3531,1,-7,-3,
2067,6,2,2023,12,7,23,754,-1036,-1735,3528,-6,-8,-3,
2068,6,2,2023,12,7,23,764,-1039,-1755,3522,-8,-8,1,
2069,6,2,2023,12,7,23,774,-1039,-1753,3522,-6,-9,0,
2070,6,2,2023,12,7,23,784,-1041,-1761,3521,-8,-14,-4,
2071,6,2,2023,12,7,23,794,-1039,-1760,3519,-4,-17,-3,
2072,6,2,2023,12,7,23,804,-1028,-1754,3512,-1,-21,-3,
2073,6,2,2023,12,7,23,814,-1030,-1747,3523,-2,-17,-1,
2074,6,2,2023,12,7,23,824,-1040,-1743,3534,0,-10,4,
2075,6,2,2023,12,7,23,834,-1031,-1734,3519,-6,-14,1,
2076,6,2,2023,12,7,23,844,-1027,-1730,3533,-10,-5,3,
2077,6,2,2023,12,7,23,854,-1025,-1735,3534,-20,3,6,
2078,6,2,2023,12,7,23,864,-1033,-1736,3535,-31,5,4,
2079,6,2,2023,12,7,23,874,-1029,-1753,3525,-39,9,0,
2080,6,2,2023,12,7,23,884,-1033,-1756,3516,-44,12,2,
2081,6,2,2023,12,7,23,894,-1038,-1751,3528,-49,10,6,
2082,6,2,2023,12,7,23,904,-1032,-1768,3510,-47,7,8,
2083,6,2,2023,12,7,23,914,-1042,-1751,3520,-44,13,7,
2084,6,2,2023,12,7,23,924,-1044,-1761,3524,-43,15,6,
2085,6,2,2023,12,7,23,934,-1043,-1770,3508,-42,6,5,
2086,6,2,2023,12,7,23,944,-1043,-1762,3524,-40,5,7,
2087,6,2,2023,12,7,23,954,-1032,-1756,3511,-41,3,4,
2088,6,2,2023,12,7,23,964,-1037,-1759,3526,-37,8,3,
2089,6,2,2023,12,7,23,974,-1040,-1752,3510,-38,8,6,
2090,6,2,2023,12,7,23,984,-1044,-1757,3519,-39,13,7,
2091,6,2,2023,12,7,23,994,-1041,-1768,3520,-20,16,6,
2092,6,2,2023,12,7,24,4,-1035,-1750,3513,-12,18,3,
2093,6,2,2023,12,7,24,14,-1058,-1759,3550,-17,15,1,
2094,6,2,2023,12,7,24,24,-1036,-1766,3508,-53,-13,5,
2095,6,2,2023,12,7,24,34,-1035,-1770,3515,-39,-6,2,
2096,6,2,2023,12,7,24,44,-1039,-1768,3506,-35,-14,1,
2097,6,2,2023,12,7,24,54,-1041,-1760,3514,-29,-13,1,
2098,6,2,2023,12,7,24,64,-1037,-1755,3517,-26,-15,3,
2099,6,2,2023,12,7,24,74,-1045,-1761,3508,-26,-19,0,
2100,6,2,2023,12,7,24,84,-1046,-1777,3502,-22,-20,-1,
2101,6,2,2023,12,7,24,94,-1033,-1780,3503,-20,-25,-1,
2102,6,2,2023,12,7,24,104,-1034,-1765,3517,-12,-23,1,
2103,6,2,2023,12,7,24,114,-1041,-1765,3521,-13,-23,2,
2104,6,2,2023,12,7,24,124,-1041,-1769,3515,-10,-20,1,
2105,6,2,2023,12,7,24,134,-1038,-1764,3520,-9,-15,1,
2106,6,2,2023,12,7,24,144,-1033,-1770,3518,-12,-19,0,
2107,6,2,2023,12,7,24,154,-1034,-1769,3511,-7,-18,2,
2108,6,2,2023,12,7,24,164,-1037,-1771,3517,-7,-14,1,
2109,6,2,2023,12,7,24,174,-1040,-1761,3517,-7,-15,-2,
2110,6,2,2023,12,7,24,184,-1039,-1768,3516,-7,-18,-2,
2111,6,2,2023,12,7,24,194,-1033,-1777,3517,-6,-20,1,
2112,6,2,2023,12,7,24,204,-1037,-1776,3521,2,-22,-2,
2113,6,2,2023,12,7,24,214,-1033,-1780,3506,8,-25,-4,
2114,6,2,2023,12,7,24,224,-1037,-1776,3514,17,-20,-6,
2115,6,2,2023,12,7,24,234,-1040,-1777,3517,19,-25,-8,
2116,6,2,2023,12,7,24,244,-1034,-1767,3517,20,-26,-9,
2117,6,2,2023,12,7,24,254,-1039,-1770,3516,25,-27,-10,
2118,6,2,2023,12,7,24,264,-1036,-1769,3526,32,-29,-14,
2119,6,2,2023,12,7,24,274,-1040,-1759,3526,33,-31,-20,
2120,6,2,2023,12,7,24,284,-1047,-1754,3531,33,-29,-25,
2121,6,2,2023,12,7,24,294,-1048,-1750,3527,36,-31,-29,
2122,6,2,2023,12,7,24,304,-1043,-1755,3531,38,-37,-34,
2123,6,2,2023,12,7,24,314,-1030,-1749,3512,40,-37,-41,
2124,6,2,2023,12,7,24,324,-1003,-1768,3506,50,-39,-39,
2125,6,2,2023,12,7,24,334,-1030,-1768,3526,51,-35,-33,
2126,6,2,2023,12,7,24,354,-1009,-1748,3516,43,-36,-31,
2127,6,2,2023,12,7,24,364,-1018,-1762,3519,43,-29,-30,
2128,6,2,2023,12,7,24,374,-1021,-1751,3515,41,-30,-27,
2129,6,2,2023,12,7,24,384,-1022,-1745,3525,39,-25,-24,
2130,6,2,2023,12,7,24,394,-1023,-1746,3521,35,-26,-22,
2131,6,2,2023,12,7,24,404,-1020,-1754,3522,38,-29,-24,
2132,6,2,2023,12,7,24,414,-1020,-1754,3536,38,-20,-27,
2133,6,2,2023,12,7,24,424,-1017,-1750,3525,36,-22,-22,
2134,6,2,2023,12,7,24,434,-1019,-1755,3527,33,-21,-18,
2135,6,2,2023,12,7,24,444,-1023,-1749,3533,33,-21,-18,
2136,6,2,2023,12,7,24,454,-1019,-1743,3527,29,-24,-18,
2137,6,2,2023,12,7,24,464,-1014,-1741,3528,30,-20,-15,
2138,6,2,2023,12,7,24,474,-1012,-1742,3532,27,-21,-19,
2139,6,2,2023,12,7,24,484,-1020,-1731,3543,24,-27,-18,
2140,6,2,2023,12,7,24,494,-1014,-1739,3534,16,-31,-11,
2141,6,2,2023,12,7,24,504,-1008,-1756,3512,7,-33,-10,
2142,6,2,2023,12,7,24,514,-1007,-1758,3527,20,-23,-11,
2143,6,2,2023,12,7,24,524,-1009,-1747,3533,16,-28,-9,
2144,6,2,2023,12,7,24,534,-1014,-1741,3531,9,-26,-11,
2145,6,2,2023,12,7,24,544,-1015,-1740,3538,7,-27,-8,
2146,6,2,2023,12,7,24,554,-1012,-1748,3536,2,-20,-8,
2147,6,2,2023,12,7,24,564,-1009,-1749,3539,-2,-17,-9,
2148,6,2,2023,12,7,24,574,-1011,-1745,3540,-5,-17,-6,
2149,6,2,2023,12,7,24,584,-1008,-1741,3529,-10,-18,-4,
2150,6,2,2023,12,7,24,594,-1006,-1730,3539,-4,-15,-8,
2151,6,2,2023,12,7,24,604,-1011,-1723,3548,-7,-20,-10,
2152,6,2,2023,12,7,24,614,-1003,-1723,3544,-5,-19,-10,
2153,6,2,2023,12,7,24,624,-1002,-1734,3539,-10,-17,-8,
2154,6,2,2023,12,7,24,634,-1019,-1747,3525,-15,-15,-5,
2155,6,2,2023,12,7,24,644,-1024,-1757,3532,-16,-23,-4,
2156,6,2,2023,12,7,24,654,-1009,-1743,3531,-15,-27,-4,
2157,6,2,2023,12,7,24,664,-1010,-1722,3546,-6,-18,-5,
2158,6,2,2023,12,7,24,674,-1000,-1691,3547,-17,-22,0,
2159,6,2,2023,12,7,24,684,-1034,-1706,3552,0,4,18,
2160,6,2,2023,12,7,24,694,-1016,-1718,3552,-32,-17,23,
2161,6,2,2023,12,7,24,704,-1008,-1745,3517,-37,-28,22,
2162,6,2,2023,12,7,24,714,-1012,-1767,3528,-33,-29,24,
2163,6,2,2023,12,7,24,724,-1002,-1724,3539,-24,-25,14,
2164,6,2,2023,12,7,24,734,-1012,-1744,3557,-31,-27,26,
2165,6,2,2023,12,7,24,744,-1002,-1777,3505,-46,-43,29,
2166,6,2,2023,12,7,24,754,-1023,-1746,3553,-23,-29,29,
2167,6,2,2023,12,7,24,764,-1012,-1724,3549,-45,-40,35,
2168,6,2,2023,12,7,24,774,-1005,-1700,3517,-53,-40,56,
2169,6,2,2023,12,7,24,784,-1006,-1704,3558,-72,-40,114,
2170,6,2,2023,12,7,24,794,-990,-1834,3501,-123,-69,157,
2171,6,2,2023,12,7,24,804,-1000,-1807,3498,-62,-38,91,
2172,6,2,2023,12,7,24,814,-1021,-1735,3562,-24,-11,42,
2173,6,2,2023,12,7,24,824,-998,-1746,3508,-74,-43,50,
2174,6,2,2023,12,7,24,834,-1007,-1748,3522,-66,-26,64,
2175,6,2,2023,12,7,24,844,-1003,-1801,3524,-79,-25,74,
2176,6,2,2023,12,7,24,854,-1008,-1823,3500,-58,-26,61,
2177,6,2,2023,12,7,24,864,-1010,-1793,3513,-40,-24,32,
2178,6,2,2023,12,7,24,874,-1019,-1761,3534,-29,-15,19,
2179,6,2,2023,12,7,24,884,-1020,-1761,3527,-39,-20,22,
2180,6,2,2023,12,7,24,894,-1007,-1767,3518,-37,-17,30,
2181,6,2,2023,12,7,24,904,-1018,-1756,3528,-30,-17,43,
2182,6,2,2023,12,7,24,914,-1013,-1791,3524,-51,-35,65,
2183,6,2,2023,12,7,24,924,-1006,-1794,3504,-43,-37,47,
2184,6,2,2023,12,7,24,934,-1009,-1763,3536,-25,-24,32,
2185,6,2,2023,12,7,24,944,-1009,-1763,3525,-30,-22,31,
2186,6,2,2023,12,7,24,954,-1007,-1783,3519,-31,-18,30,
2187,6,2,2023,12,7,24,964,-1000,-1764,3525,-22,-6,11,
2188,6,2,2023,12,7,24,974,-1011,-1768,3522,-19,-2,6,
2189,6,2,2023,12,7,24,984,-1014,-1766,3519,-21,1,4,
