Packet #, Month, Day, Year, Hour, Minute, Second, MS, ACC X, ACC Y, ACC Z, GYR X, GYR Y, GYR Z
1,7,20,2023,11,29,10,576,0,0,0,0,0,0,
2,7,20,2023,11,29,10,586,0,0,0,0,0,0,
3,7,20,2023,11,29,10,596,0,0,0,0,0,0,
4,7,20,2023,11,29,10,606,0,0,0,0,0,0,
5,7,20,2023,11,29,10,616,0,0,0,0,0,0,
6,7,20,2023,11,29,10,626,0,0,0,0,0,0,
7,7,20,2023,11,29,10,636,-1958,-319,3557,-5,-9,7,
8,7,20,2023,11,29,10,646,-1952,-335,3554,-11,-8,9,
9,7,20,2023,11,29,10,656,-1950,-325,3546,-11,-5,4,
10,7,20,2023,11,29,10,666,-1942,-332,3548,-6,-9,0,
11,7,20,2023,11,29,10,676,-1941,-340,3545,-4,-16,2,
12,7,20,2023,11,29,10,686,-1942,-335,3544,-7,-21,3,
13,7,20,2023,11,29,10,696,-1939,-339,3550,-3,-24,6,
14,7,20,2023,11,29,10,706,-1948,-330,3552,-4,-26,4,
15,7,20,2023,11,29,10,716,-1936,-331,3555,-5,-24,5,
16,7,20,2023,11,29,10,726,-1942,-348,3551,-4,-24,5,
17,7,20,2023,11,29,10,736,-1950,-328,3544,5,-27,12,
18,7,20,2023,11,29,10,746,-1940,-321,3549,6,-25,11,
19,7,20,2023,11,29,10,756,-1929,-332,3551,0,-26,6,
20,7,20,2023,11,29,10,766,-1937,-328,3548,-1,-25,5,
21,7,20,2023,11,29,10,776,-1931,-326,3556,-3,-26,5,
22,7,20,2023,11,29,10,786,-1926,-340,3547,-2,-22,2,
23,7,20,2023,11,29,10,796,-1934,-340,3550,-1,-20,10,
24,7,20,2023,11,29,10,806,-1949,-337,3556,3,-21,11,
25,7,20,2023,11,29,10,816,-1938,-341,3546,5,-19,12,
26,7,20,2023,11,29,10,826,-1927,-348,3549,7,-17,12,
27,7,20,2023,11,29,10,836,-1947,-342,3556,8,-10,16,
28,7,20,2023,11,29,10,846,-1939,-330,3557,11,-10,19,
29,7,20,2023,11,29,10,856,-1933,-330,3556,11,-8,21,
30,7,20,2023,11,29,10,866,-1945,-323,3558,10,-7,16,
31,7,20,2023,11,29,10,876,-1945,-318,3559,10,-4,16,
32,7,20,2023,11,29,10,886,-1938,-329,3556,7,-5,18,
33,7,20,2023,11,29,10,896,-1938,-337,3560,5,-1,18,
34,7,20,2023,11,29,10,906,-1941,-323,3553,11,-3,20,
35,7,20,2023,11,29,10,916,-1943,-325,3551,12,-4,17,
36,7,20,2023,11,29,10,926,-1938,-330,3548,7,-5,14,
37,7,20,2023,11,29,10,936,-1943,-320,3559,7,-3,16,
38,7,20,2023,11,29,10,946,-1944,-313,3552,3,-1,11,
39,7,20,2023,11,29,10,956,-1941,-320,3552,2,0,11,
40,7,20,2023,11,29,10,966,-1936,-323,3560,1,-4,11,
41,7,20,2023,11,29,10,976,-1937,-319,3549,-4,-3,2,
42,7,20,2023,11,29,10,986,-1940,-325,3548,-3,-3,3,
43,7,20,2023,11,29,10,996,-1941,-335,3556,-3,-7,6,
44,7,20,2023,11,29,11,6,-1948,-341,3543,0,-9,8,
45,7,20,2023,11,29,11,16,-1952,-335,3540,4,-16,6,
46,7,20,2023,11,29,11,26,-1930,-339,3556,6,-21,10,
47,7,20,2023,11,29,11,36,-1924,-340,3545,8,-23,17,
48,7,20,2023,11,29,11,46,-1935,-332,3556,15,-20,21,
49,7,20,2023,11,29,11,56,-1944,-322,3557,16,-20,19,
50,7,20,2023,11,29,11,66,-1939,-319,3561,14,-16,17,
51,7,20,2023,11,29,11,76,-1937,-323,3562,11,-15,19,
52,7,20,2023,11,29,11,86,-1955,-311,3563,9,-13,16,
53,7,20,2023,11,29,11,96,-1952,-302,3561,5,-14,10,
54,7,20,2023,11,29,11,106,-1944,-307,3554,3,-19,11,
55,7,20,2023,11,29,11,116,-1946,-308,3556,5,-25,8,
56,7,20,2023,11,29,11,126,-1944,-309,3561,1,-25,0,
57,7,20,2023,11,29,11,136,-1935,-321,3559,-1,-23,0,
58,7,20,2023,11,29,11,146,-1940,-328,3551,-3,-26,-1,
59,7,20,2023,11,29,11,156,-1940,-329,3550,-3,-29,-3,
60,7,20,2023,11,29,11,166,-1924,-329,3555,-4,-29,-4,
61,7,20,2023,11,29,11,176,-1915,-322,3553,-4,-30,-2,
62,7,20,2023,11,29,11,186,-1931,-324,3554,-4,-33,-3,
63,7,20,2023,11,29,11,196,-1932,-322,3558,-3,-33,-6,
64,7,20,2023,11,29,11,206,-1940,-322,3553,-6,-32,-4,
65,7,20,2023,11,29,11,216,-1936,-323,3551,-7,-32,-4,
66,7,20,2023,11,29,11,226,-1936,-333,3557,-6,-35,-7,
67,7,20,2023,11,29,11,236,-1930,-328,3552,-6,-38,-4,
68,7,20,2023,11,29,11,246,-1930,-333,3557,-8,-38,-6,
69,7,20,2023,11,29,11,256,-1933,-332,3550,-8,-39,-6,
70,7,20,2023,11,29,11,266,-1930,-329,3555,-8,-39,-5,
71,7,20,2023,11,29,11,276,-1938,-323,3563,-6,-43,-7,
72,7,20,2023,11,29,11,286,-1936,-318,3558,-6,-49,-11,
73,7,20,2023,11,29,11,296,-1922,-327,3562,-9,-45,-11,
74,7,20,2023,11,29,11,306,-1929,-314,3570,-12,-44,-13,
75,7,20,2023,11,29,11,316,-1926,-301,3565,-13,-38,-10,
76,7,20,2023,11,29,11,326,-1921,-318,3567,-15,-32,-16,
77,7,20,2023,11,29,11,336,-1938,-314,3560,-26,-31,-19,
78,7,20,2023,11,29,11,346,-1936,-324,3567,-19,-30,-17,
79,7,20,2023,11,29,11,356,-1939,-318,3567,-19,-30,-19,
80,7,20,2023,11,29,11,366,-1930,-338,3559,-23,-35,-21,
81,7,20,2023,11,29,11,376,-1927,-331,3551,-24,-40,-22,
82,7,20,2023,11,29,11,386,-1931,-337,3564,-17,-43,-21,
83,7,20,2023,11,29,11,396,-1938,-322,3563,-23,-46,-22,
84,7,20,2023,11,29,11,406,-1927,-328,3551,-25,-53,-25,
85,7,20,2023,11,29,11,416,-1924,-324,3556,-14,-57,-23,
86,7,20,2023,11,29,11,436,-1898,-339,3562,-14,-72,-24,
87,7,20,2023,11,29,11,446,-1897,-343,3559,-12,-71,-22,
88,7,20,2023,11,29,11,456,-1912,-349,3565,-4,-69,-11,
89,7,20,2023,11,29,11,466,-1902,-340,3560,-3,-66,-9,
90,7,20,2023,11,29,11,476,-1894,-366,3566,10,-63,-4,
91,7,20,2023,11,29,11,486,-1878,-350,3558,11,-57,2,
92,7,20,2023,11,29,11,496,-1887,-354,3558,11,-48,5,
93,7,20,2023,11,29,11,506,-1897,-345,3573,17,-38,12,
94,7,20,2023,11,29,11,516,-1898,-323,3565,15,-28,13,
95,7,20,2023,11,29,11,526,-1906,-332,3576,7,-18,9,
96,7,20,2023,11,29,11,536,-1921,-330,3575,4,-14,8,
97,7,20,2023,11,29,11,546,-1910,-331,3575,0,-10,8,
98,7,20,2023,11,29,11,556,-1908,-321,3572,-4,-10,8,
99,7,20,2023,11,29,11,566,-1915,-306,3576,-1,-12,9,
100,7,20,2023,11,29,11,576,-1922,-304,3574,-5,-14,14,
101,7,20,2023,11,29,11,586,-1916,-324,3567,-10,-13,4,
102,7,20,2023,11,29,11,596,-1915,-317,3573,-12,-10,0,
103,7,20,2023,11,29,11,606,-1921,-319,3580,-16,-8,-4,
104,7,20,2023,11,29,11,616,-1908,-334,3575,-19,-7,-7,
105,7,20,2023,11,29,11,626,-1898,-329,3567,-27,1,-8,
106,7,20,2023,11,29,11,636,-1913,-337,3565,-27,-1,-7,
107,7,20,2023,11,29,11,646,-1909,-348,3570,-19,0,-7,
108,7,20,2023,11,29,11,656,-1910,-345,3576,-18,3,-1,
109,7,20,2023,11,29,11,666,-1913,-342,3560,-19,3,-2,
110,7,20,2023,11,29,11,676,-1911,-338,3545,-15,-2,-1,
111,7,20,2023,11,29,11,686,-1922,-360,3544,-7,-10,4,
112,7,20,2023,11,29,11,696,-1912,-341,3555,5,-28,8,
113,7,20,2023,11,29,11,706,-1907,-342,3560,9,-39,11,
114,7,20,2023,11,29,11,716,-1905,-331,3574,12,-34,14,
115,7,20,2023,11,29,11,726,-1909,-327,3587,9,-30,13,
116,7,20,2023,11,29,11,736,-1911,-315,3590,5,-25,8,
117,7,20,2023,11,29,11,746,-1903,-320,3592,-4,-20,2,
118,7,20,2023,11,29,11,756,-1913,-318,3580,-10,-10,2,
119,7,20,2023,11,29,11,766,-1905,-331,3574,-13,-8,-3,
120,7,20,2023,11,29,11,776,-1903,-332,3571,-19,-4,-2,
121,7,20,2023,11,29,11,786,-1915,-332,3578,-19,-1,-4,
122,7,20,2023,11,29,11,796,-1897,-336,3576,-23,0,-8,
123,7,20,2023,11,29,11,806,-1892,-338,3570,-20,7,-6,
124,7,20,2023,11,29,11,816,-1899,-353,3569,-19,11,-5,
125,7,20,2023,11,29,11,826,-1908,-347,3571,-16,14,-3,
126,7,20,2023,11,29,11,836,-1905,-346,3572,-17,16,2,
127,7,20,2023,11,29,11,846,-1904,-347,3566,-15,15,2,
128,7,20,2023,11,29,11,856,-1915,-341,3559,-8,10,5,
129,7,20,2023,11,29,11,866,-1916,-340,3561,-6,8,7,
130,7,20,2023,11,29,11,876,-1913,-332,3566,-5,3,5,
131,7,20,2023,11,29,11,886,-1919,-333,3576,-6,0,5,
132,7,20,2023,11,29,11,896,-1924,-335,3571,-6,-6,7,
133,7,20,2023,11,29,11,906,-1920,-333,3559,-5,-10,1,
134,7,20,2023,11,29,11,916,-1904,-340,3562,-9,-8,0,
135,7,20,2023,11,29,11,926,-1898,-341,3565,-10,-8,3,
136,7,20,2023,11,29,11,936,-1906,-340,3564,-6,-7,3,
137,7,20,2023,11,29,11,946,-1911,-349,3568,-3,-6,6,
138,7,20,2023,11,29,11,956,-1914,-340,3563,3,-11,8,
139,7,20,2023,11,29,11,966,-1905,-337,3574,9,-16,12,
140,7,20,2023,11,29,11,976,-1912,-333,3567,13,-14,15,
141,7,20,2023,11,29,11,986,-1903,-333,3570,12,-11,19,
142,7,20,2023,11,29,11,996,-1898,-332,3570,6,-9,14,
143,7,20,2023,11,29,12,6,-1904,-321,3564,2,-7,15,
144,7,20,2023,11,29,12,16,-1914,-326,3562,1,-4,14,
145,7,20,2023,11,29,12,26,-1912,-329,3566,1,-5,11,
146,7,20,2023,11,29,12,36,-1909,-335,3572,-2,-7,10,
147,7,20,2023,11,29,12,46,-1906,-337,3564,-4,-9,7,
148,7,20,2023,11,29,12,56,-1908,-343,3568,-4,-8,11,
149,7,20,2023,11,29,12,66,-1908,-333,3576,-3,-12,11,
150,7,20,2023,11,29,12,76,-1912,-327,3571,0,-11,10,
151,7,20,2023,11,29,12,86,-1911,-330,3574,-4,-3,7,
152,7,20,2023,11,29,12,96,-1913,-328,3580,-10,5,5,
153,7,20,2023,11,29,12,106,-1910,-330,3580,-10,7,5,
154,7,20,2023,11,29,12,116,-1905,-320,3573,-12,12,2,
155,7,20,2023,11,29,12,126,-1924,-320,3578,-16,18,1,
156,7,20,2023,11,29,12,136,-1914,-328,3570,-19,20,1,
157,7,20,2023,11,29,12,146,-1913,-337,3564,-17,16,-3,
158,7,20,2023,11,29,12,156,-1911,-348,3550,-16,12,-1,
159,7,20,2023,11,29,12,166,-1906,-342,3562,-14,6,-3,
160,7,20,2023,11,29,12,176,-1905,-345,3564,-9,4,0,
161,7,20,2023,11,29,12,186,-1911,-341,3566,-2,1,5,
162,7,20,2023,11,29,12,196,-1917,-338,3564,-4,-3,10,
163,7,20,2023,11,29,12,206,-1908,-333,3561,-3,-7,8,
164,7,20,2023,11,29,12,216,-1910,-338,3568,-3,-3,9,
165,7,20,2023,11,29,12,226,-1914,-335,3571,-4,-1,11,
166,7,20,2023,11,29,12,236,-1913,-331,3569,-7,4,10,
167,7,20,2023,11,29,12,246,-1915,-334,3577,-11,4,4,
168,7,20,2023,11,29,12,256,-1911,-348,3563,-9,7,6,
169,7,20,2023,11,29,12,266,-1902,-330,3565,-7,11,9,
170,7,20,2023,11,29,12,276,-1926,-329,3568,-10,13,7,
171,7,20,2023,11,29,12,296,-1915,-335,3559,-6,11,10,
172,7,20,2023,11,29,12,306,-1920,-325,3562,-3,6,11,
173,7,20,2023,11,29,12,316,-1920,-322,3567,-2,3,10,
174,7,20,2023,11,29,12,326,-1905,-323,3562,-3,3,10,
175,7,20,2023,11,29,12,336,-1914,-331,3568,-1,1,12,
176,7,20,2023,11,29,12,346,-1922,-332,3567,-3,2,16,
177,7,20,2023,11,29,12,356,-1929,-319,3563,-4,3,11,
178,7,20,2023,11,29,12,366,-1915,-338,3567,-8,-1,9,
179,7,20,2023,11,29,12,376,-1921,-355,3561,-4,-4,9,
180,7,20,2023,11,29,12,386,-1921,-353,3567,-1,-1,11,
181,7,20,2023,11,29,12,396,-1928,-349,3553,2,-4,15,
182,7,20,2023,11,29,12,406,-1931,-351,3547,6,-11,22,
183,7,20,2023,11,29,12,416,-1935,-356,3555,15,-22,24,
184,7,20,2023,11,29,12,426,-1916,-363,3557,23,-29,25,
185,7,20,2023,11,29,12,436,-1908,-364,3558,33,-39,33,
186,7,20,2023,11,29,12,446,-1914,-351,3563,37,-45,38,
187,7,20,2023,11,29,12,456,-1908,-327,3566,35,-48,37,
188,7,20,2023,11,29,12,466,-1905,-323,3567,41,-47,39,
189,7,20,2023,11,29,12,476,-1916,-308,3579,39,-39,39,
190,7,20,2023,11,29,12,486,-1930,-294,3592,26,-34,33,
191,7,20,2023,11,29,12,496,-1912,-295,3585,18,-28,27,
192,7,20,2023,11,29,12,506,-1916,-293,3583,12,-11,21,
193,7,20,2023,11,29,12,516,-1920,-291,3587,-4,2,13,
194,7,20,2023,11,29,12,526,-1920,-304,3580,-14,10,1,
195,7,20,2023,11,29,12,536,-1921,-313,3565,-23,16,-1,
196,7,20,2023,11,29,12,546,-1919,-334,3559,-22,14,-4,
197,7,20,2023,11,29,12,556,-1917,-343,3554,-18,9,-3,
198,7,20,2023,11,29,12,566,-1918,-367,3552,-13,4,0,
199,7,20,2023,11,29,12,576,-1901,-368,3561,-2,0,9,
200,7,20,2023,11,29,12,586,-1901,-338,3560,5,-2,14,
201,7,20,2023,11,29,12,596,-1911,-329,3562,10,0,19,
202,7,20,2023,11,29,12,606,-1913,-315,3570,10,3,20,
203,7,20,2023,11,29,12,616,-1918,-313,3570,7,11,18,
204,7,20,2023,11,29,12,626,-1919,-296,3572,0,16,14,
205,7,20,2023,11,29,12,636,-1923,-303,3579,-12,15,9,
206,7,20,2023,11,29,12,646,-1924,-303,3580,-17,17,2,
207,7,20,2023,11,29,12,656,-1912,-307,3572,-24,21,-3,
208,7,20,2023,11,29,12,666,-1923,-317,3570,-27,19,-8,
209,7,20,2023,11,29,12,676,-1935,-316,3570,-26,13,-9,
210,7,20,2023,11,29,12,686,-1930,-317,3568,-28,9,-13,
211,7,20,2023,11,29,12,696,-1929,-331,3562,-27,6,-13,
212,7,20,2023,11,29,12,706,-1932,-328,3567,-24,1,-9,
213,7,20,2023,11,29,12,716,-1932,-335,3570,-23,-1,-12,
214,7,20,2023,11,29,12,726,-1933,-333,3568,-24,0,-12,
215,7,20,2023,11,29,12,736,-1918,-327,3571,-26,2,-13,
216,7,20,2023,11,29,12,746,-1927,-324,3562,-30,3,-12,
217,7,20,2023,11,29,12,756,-1919,-328,3563,-29,6,-13,
218,7,20,2023,11,29,12,766,-1919,-330,3565,-29,8,-17,
219,7,20,2023,11,29,12,776,-1919,-331,3557,-34,10,-15,
220,7,20,2023,11,29,12,786,-1910,-338,3558,-34,6,-14,
221,7,20,2023,11,29,12,796,-1916,-345,3563,-26,5,-13,
222,7,20,2023,11,29,12,806,-1922,-341,3551,-23,4,-9,
223,7,20,2023,11,29,12,816,-1922,-338,3548,-23,5,-8,
224,7,20,2023,11,29,12,826,-1923,-336,3549,-19,-2,-9,
225,7,20,2023,11,29,12,836,-1921,-333,3560,-19,0,-9,
226,7,20,2023,11,29,12,846,-1920,-346,3547,-21,0,-6,
227,7,20,2023,11,29,12,856,-1927,-348,3553,-15,-3,-6,
228,7,20,2023,11,29,12,866,-1924,-351,3553,-10,-6,0,
229,7,20,2023,11,29,12,876,-1924,-358,3554,-6,-10,3,
230,7,20,2023,11,29,12,886,-1928,-355,3555,0,-13,8,
231,7,20,2023,11,29,12,896,-1936,-340,3576,6,-19,12,
232,7,20,2023,11,29,12,906,-1927,-332,3558,8,-23,13,
233,7,20,2023,11,29,12,916,-1920,-328,3567,8,-22,12,
234,7,20,2023,11,29,12,926,-1928,-331,3568,9,-21,10,
235,7,20,2023,11,29,12,936,-1924,-325,3558,7,-20,14,
236,7,20,2023,11,29,12,946,-1920,-331,3568,2,-18,10,
237,7,20,2023,11,29,12,956,-1922,-325,3568,-1,-16,6,
238,7,20,2023,11,29,12,966,-1924,-322,3560,-1,-19,6,
239,7,20,2023,11,29,12,976,-1925,-332,3560,-3,-20,6,
240,7,20,2023,11,29,12,986,-1923,-336,3556,0,-22,5,
241,7,20,2023,11,29,12,996,-1925,-332,3567,1,-22,3,
242,7,20,2023,11,29,13,6,-1922,-328,3572,-2,-22,4,
243,7,20,2023,11,29,13,16,-1926,-335,3565,3,-26,7,
244,7,20,2023,11,29,13,26,-1921,-337,3558,2,-29,6,
245,7,20,2023,11,29,13,36,-1924,-340,3556,3,-40,9,
246,7,20,2023,11,29,13,46,-1926,-338,3558,8,-46,8,
247,7,20,2023,11,29,13,56,-1927,-343,3556,13,-44,10,
248,7,20,2023,11,29,13,66,-1925,-326,3565,12,-48,10,
249,7,20,2023,11,29,13,76,-1914,-328,3577,13,-52,13,
250,7,20,2023,11,29,13,86,-1916,-319,3586,9,-45,8,
251,7,20,2023,11,29,13,96,-1917,-315,3584,0,-36,2,
252,7,20,2023,11,29,13,106,-1917,-319,3574,-7,-29,-2,
253,7,20,2023,11,29,13,116,-1910,-304,3569,-14,-23,-7,
254,7,20,2023,11,29,13,126,-1908,-316,3576,-18,-18,-10,
255,7,20,2023,11,29,13,136,-1908,-326,3571,-20,-17,-14,
256,7,20,2023,11,29,13,156,-1908,-333,3581,-27,-6,-14,
257,7,20,2023,11,29,13,166,-1920,-335,3576,-33,-4,-18,
258,7,20,2023,11,29,13,176,-1919,-338,3566,-33,2,-19,
259,7,20,2023,11,29,13,186,-1917,-347,3561,-25,3,-15,
260,7,20,2023,11,29,13,196,-1911,-362,3556,-20,-6,-15,
261,7,20,2023,11,29,13,206,-1918,-358,3551,-16,-13,-9,
262,7,20,2023,11,29,13,216,-1912,-357,3554,-6,-23,-6,
263,7,20,2023,11,29,13,226,-1914,-365,3556,3,-28,-1,
264,7,20,2023,11,29,13,236,-1910,-346,3560,7,-34,2,
265,7,20,2023,11,29,13,246,-1915,-342,3563,11,-41,1,
266,7,20,2023,11,29,13,256,-1909,-336,3568,15,-41,8,
267,7,20,2023,11,29,13,266,-1898,-326,3576,17,-40,10,
268,7,20,2023,11,29,13,276,-1899,-334,3572,16,-36,8,
269,7,20,2023,11,29,13,286,-1901,-334,3565,12,-30,7,
270,7,20,2023,11,29,13,296,-1903,-339,3565,6,-24,8,
271,7,20,2023,11,29,13,306,-1930,-325,3570,8,-22,10,
272,7,20,2023,11,29,13,316,-1918,-328,3565,7,-24,8,
273,7,20,2023,11,29,13,326,-1916,-337,3563,6,-26,12,
274,7,20,2023,11,29,13,336,-1918,-343,3564,9,-27,13,
275,7,20,2023,11,29,13,346,-1916,-332,3572,11,-33,11,
276,7,20,2023,11,29,13,356,-1912,-335,3576,16,-37,11,
277,7,20,2023,11,29,13,366,-1902,-335,3578,17,-39,14,
278,7,20,2023,11,29,13,376,-1905,-322,3572,22,-41,16,
279,7,20,2023,11,29,13,386,-1901,-330,3574,20,-43,15,
280,7,20,2023,11,29,13,396,-1905,-309,3577,11,-39,7,
281,7,20,2023,11,29,13,406,-1913,-305,3581,9,-34,5,
282,7,20,2023,11,29,13,416,-1911,-314,3581,0,-31,-1,
283,7,20,2023,11,29,13,426,-1910,-316,3575,-8,-26,-8,
284,7,20,2023,11,29,13,436,-1911,-341,3576,-3,-31,-4,
285,7,20,2023,11,29,13,446,-1904,-328,3566,-6,-34,-6,
286,7,20,2023,11,29,13,456,-1906,-355,3565,1,-40,-3,
287,7,20,2023,11,29,13,466,-1900,-347,3566,4,-44,-1,
288,7,20,2023,11,29,13,476,-1915,-328,3566,10,-47,-1,
289,7,20,2023,11,29,13,486,-1904,-341,3582,17,-51,6,
290,7,20,2023,11,29,13,496,-1901,-322,3583,12,-53,3,
291,7,20,2023,11,29,13,506,-1897,-319,3576,7,-54,1,
292,7,20,2023,11,29,13,516,-1893,-337,3586,8,-56,-1,
293,7,20,2023,11,29,13,526,-1878,-340,3569,7,-51,2,
294,7,20,2023,11,29,13,536,-1856,-353,3578,11,-45,8,
295,7,20,2023,11,29,13,546,-1891,-332,3577,12,-36,13,
296,7,20,2023,11,29,13,556,-1897,-325,3581,14,-31,12,
297,7,20,2023,11,29,13,566,-1910,-316,3581,11,-29,12,
298,7,20,2023,11,29,13,576,-1899,-325,3582,9,-30,9,
299,7,20,2023,11,29,13,586,-1901,-307,3589,2,-31,3,
300,7,20,2023,11,29,13,596,-1918,-304,3591,-13,-31,-8,
301,7,20,2023,11,29,13,606,-1909,-330,3587,-15,-39,-12,
302,7,20,2023,11,29,13,616,-1908,-321,3582,-17,-44,-19,
303,7,20,2023,11,29,13,626,-1871,-356,3566,-17,-48,-16,
304,7,20,2023,11,29,13,636,-1871,-373,3574,-5,-50,-9,
305,7,20,2023,11,29,13,646,-1898,-340,3564,1,-48,-1,
306,7,20,2023,11,29,13,656,-1878,-349,3579,9,-53,4,
307,7,20,2023,11,29,13,666,-1888,-333,3571,13,-61,9,
308,7,20,2023,11,29,13,676,-1913,-303,3585,18,-64,11,
309,7,20,2023,11,29,13,686,-1914,-296,3587,13,-77,7,
310,7,20,2023,11,29,13,696,-1907,-293,3588,4,-82,-5,
311,7,20,2023,11,29,13,706,-1920,-313,3590,-1,-89,-11,
312,7,20,2023,11,29,13,716,-1940,-287,3595,-7,-102,-19,
313,7,20,2023,11,29,13,726,-1941,-272,3593,-23,-113,-38,
314,7,20,2023,11,29,13,736,-1932,-283,3590,-36,-125,-54,
315,7,20,2023,11,29,13,746,-1897,-302,3589,-38,-138,-56,
316,7,20,2023,11,29,13,756,-1835,-345,3584,-52,-153,-63,
317,7,20,2023,11,29,13,766,-1837,-358,3583,-53,-150,-63,
318,7,20,2023,11,29,13,776,-1878,-311,3590,-46,-143,-56,
319,7,20,2023,11,29,13,786,-1805,-313,3580,-54,-142,-58,
320,7,20,2023,11,29,13,796,-1789,-352,3588,-58,-134,-55,
321,7,20,2023,11,29,13,806,-1775,-387,3572,-55,-118,-46,
322,7,20,2023,11,29,13,816,-1768,-383,3580,-47,-98,-40,
323,7,20,2023,11,29,13,826,-1835,-327,3595,-42,-78,-27,
324,7,20,2023,11,29,13,836,-1873,-304,3590,-53,-70,-29,
325,7,20,2023,11,29,13,846,-1852,-318,3592,-69,-68,-34,
326,7,20,2023,11,29,13,856,-1806,-341,3596,-88,-66,-39,
327,7,20,2023,11,29,13,866,-1770,-361,3599,-97,-62,-34,
328,7,20,2023,11,29,13,876,-1794,-369,3564,-100,-59,-26,
329,7,20,2023,11,29,13,886,-1774,-348,3583,-99,-40,-23,
330,7,20,2023,11,29,13,896,-1760,-400,3561,-109,-36,-16,
331,7,20,2023,11,29,13,906,-1815,-373,3590,-115,-18,-12,
332,7,20,2023,11,29,13,916,-1813,-381,3587,-133,-11,-14,
333,7,20,2023,11,29,13,926,-1768,-387,3592,-136,-7,-4,
334,7,20,2023,11,29,13,936,-1786,-378,3600,-132,2,9,
335,7,20,2023,11,29,13,946,-1798,-391,3592,-130,13,20,
336,7,20,2023,11,29,13,956,-1786,-389,3583,-119,10,36,
337,7,20,2023,11,29,13,966,-1770,-371,3589,-109,14,49,
338,7,20,2023,11,29,13,976,-1816,-387,3576,-91,19,65,
339,7,20,2023,11,29,13,986,-1846,-410,3560,-57,12,86,
340,7,20,2023,11,29,13,996,-1843,-443,3562,-26,-6,104,
341,7,20,2023,11,29,14,16,-1879,-421,3570,55,-60,144,
342,7,20,2023,11,29,14,26,-1887,-370,3599,62,-78,152,
343,7,20,2023,11,29,14,36,-1856,-355,3603,51,-77,143,
344,7,20,2023,11,29,14,46,-1810,-370,3608,42,-67,133,
345,7,20,2023,11,29,14,56,-1842,-348,3600,51,-43,136,
346,7,20,2023,11,29,14,66,-1845,-329,3622,75,-22,145,
347,7,20,2023,11,29,14,76,-1861,-345,3637,89,-14,148,
348,7,20,2023,11,29,14,86,-1881,-330,3626,93,4,146,
349,7,20,2023,11,29,14,96,-1887,-315,3633,91,23,140,
350,7,20,2023,11,29,14,106,-1843,-297,3647,81,43,127,
351,7,20,2023,11,29,14,116,-1851,-273,3641,67,78,114,
352,7,20,2023,11,29,14,126,-1841,-254,3647,38,118,91,
353,7,20,2023,11,29,14,136,-1859,-265,3641,0,153,70,
354,7,20,2023,11,29,14,146,-1862,-256,3638,-22,186,52,
355,7,20,2023,11,29,14,156,-1838,-261,3633,-46,210,38,
356,7,20,2023,11,29,14,166,-1817,-322,3619,-53,237,35,
357,7,20,2023,11,29,14,176,-1848,-399,3617,-23,271,49,
358,7,20,2023,11,29,14,186,-1904,-373,3594,8,290,76,
359,7,20,2023,11,29,14,196,-1910,-369,3584,33,289,87,
360,7,20,2023,11,29,14,206,-1925,-364,3582,56,280,93,
361,7,20,2023,11,29,14,216,-1946,-315,3580,64,263,92,
362,7,20,2023,11,29,14,226,-1934,-333,3572,62,247,84,
363,7,20,2023,11,29,14,236,-1915,-347,3577,65,232,82,
364,7,20,2023,11,29,14,246,-1906,-351,3563,74,219,86,
365,7,20,2023,11,29,14,256,-1922,-366,3562,93,203,99,
366,7,20,2023,11,29,14,266,-1945,-327,3553,105,180,105,
367,7,20,2023,11,29,14,276,-1958,-305,3549,111,157,101,
368,7,20,2023,11,29,14,286,-1946,-306,3558,114,129,98,
369,7,20,2023,11,29,14,296,-1943,-302,3555,115,105,94,
370,7,20,2023,11,29,14,306,-1946,-301,3551,124,89,95,
371,7,20,2023,11,29,14,316,-1931,-328,3545,142,77,101,
372,7,20,2023,11,29,14,326,-1928,-331,3544,164,61,114,
373,7,20,2023,11,29,14,336,-1930,-296,3546,179,38,125,
374,7,20,2023,11,29,14,346,-1921,-273,3553,172,30,124,
375,7,20,2023,11,29,14,356,-1918,-273,3558,158,35,116,
376,7,20,2023,11,29,14,366,-1927,-257,3563,144,49,112,
377,7,20,2023,11,29,14,376,-1932,-261,3561,138,72,111,
378,7,20,2023,11,29,14,386,-1924,-247,3556,136,83,108,
379,7,20,2023,11,29,14,396,-1933,-203,3550,124,95,105,
380,7,20,2023,11,29,14,406,-1942,-186,3562,97,119,88,
381,7,20,2023,11,29,14,416,-1916,-200,3561,58,148,67,
382,7,20,2023,11,29,14,426,-1884,-251,3571,30,182,54,
383,7,20,2023,11,29,14,436,-1879,-263,3567,15,227,50,
384,7,20,2023,11,29,14,446,-1877,-265,3554,7,279,55,
385,7,20,2023,11,29,14,456,-1866,-275,3565,1,336,63,
386,7,20,2023,11,29,14,466,-1894,-272,3568,-7,399,81,
387,7,20,2023,11,29,14,476,-1899,-255,3585,-16,467,95,
388,7,20,2023,11,29,14,486,-1920,-210,3599,-35,542,101,
389,7,20,2023,11,29,14,496,-1924,-200,3603,-73,643,105,
390,7,20,2023,11,29,14,506,-1931,-173,3619,-120,762,99,
391,7,20,2023,11,29,14,516,-1906,-156,3631,-169,900,88,
392,7,20,2023,11,29,14,526,-1933,-118,3635,-224,1070,60,
393,7,20,2023,11,29,14,536,-1937,-165,3643,-298,1254,39,
394,7,20,2023,11,29,14,546,-1941,-202,3652,-379,1456,36,
395,7,20,2023,11,29,14,556,-1978,-191,3687,-440,1689,23,
396,7,20,2023,11,29,14,566,-1926,-269,3697,-532,2007,-1,
397,7,20,2023,11,29,14,576,-1915,-397,3700,-612,2392,5,
398,7,20,2023,11,29,14,586,-1833,-591,3705,-680,2784,69,
399,7,20,2023,11,29,14,596,-1864,-591,3693,-633,3207,180,
400,7,20,2023,11,29,14,606,-1969,-276,3623,-487,3676,243,
401,7,20,2023,11,29,14,616,-1969,-350,3601,-444,4209,267,
402,7,20,2023,11,29,14,626,-1761,-473,3560,-377,4807,279,
403,7,20,2023,11,29,14,636,-1649,-600,3468,-311,5511,385,
404,7,20,2023,11,29,14,646,-2023,-595,3383,-205,6285,556,
405,7,20,2023,11,29,14,656,-2153,-580,3320,-72,7083,719,
406,7,20,2023,11,29,14,666,-2350,-573,3304,61,7983,909,
407,7,20,2023,11,29,14,676,-2502,-667,3248,105,8955,1099,
408,7,20,2023,11,29,14,686,-2653,-841,3191,214,9816,1389,
409,7,20,2023,11,29,14,696,-3064,-871,3241,386,10588,1710,
410,7,20,2023,11,29,14,706,-3567,-828,3346,519,11209,1998,
411,7,20,2023,11,29,14,716,-4241,-784,3494,546,11592,2257,
412,7,20,2023,11,29,14,726,-5106,-689,3757,479,11750,2426,
413,7,20,2023,11,29,14,736,-5419,-440,4304,36,11678,2479,
414,7,20,2023,11,29,14,746,-5771,-729,4502,-591,11492,2556,
415,7,20,2023,11,29,14,756,-6156,-939,4896,-666,11192,2848,
416,7,20,2023,11,29,14,766,-6187,-762,4904,-339,10690,3189,
417,7,20,2023,11,29,14,776,-5949,-574,4669,-130,10132,3477,
418,7,20,2023,11,29,14,786,-4779,-548,4126,-44,9713,3604,
419,7,20,2023,11,29,14,796,-4135,-65,4047,-208,9534,3472,
420,7,20,2023,11,29,14,806,-3170,-94,3048,-591,9232,3337,
421,7,20,2023,11,29,14,816,-1491,-369,2304,-1256,9104,3035,
422,7,20,2023,11,29,14,826,-5201,632,5465,-2343,8840,2699,
423,7,20,2023,11,29,14,836,-10814,148,10328,-4138,6003,2068,
424,7,20,2023,11,29,14,846,-5477,-2494,7449,-5056,789,1623,
425,7,20,2023,11,29,14,856,-2751,-3038,5035,-4921,-2288,1285,
426,7,20,2023,11,29,14,876,-790,-2601,2468,-2979,-4568,352,
427,7,20,2023,11,29,14,886,-270,-2339,1764,-2104,-4656,-226,
428,7,20,2023,11,29,14,896,-660,-2040,1801,-1419,-4468,-865,
429,7,20,2023,11,29,14,906,-1670,-1826,2289,-969,-4429,-1572,
430,7,20,2023,11,29,14,916,-2158,-1637,2555,-628,-4887,-2293,
431,7,20,2023,11,29,14,926,-2221,-1399,2607,-318,-5586,-2963,
432,7,20,2023,11,29,14,936,-2258,-1064,2516,-65,-6267,-3527,
433,7,20,2023,11,29,14,946,-2251,-725,2244,138,-6847,-3968,
434,7,20,2023,11,29,14,956,-2217,-474,1950,335,-7243,-4253,
435,7,20,2023,11,29,14,966,-2255,-136,1779,607,-7436,-4340,
436,7,20,2023,11,29,14,976,-2336,256,1779,892,-7493,-4251,
437,7,20,2023,11,29,14,986,-2555,637,1947,1040,-7461,-4031,
438,7,20,2023,11,29,14,996,-2916,993,2255,994,-7435,-3746,
439,7,20,2023,11,29,15,6,-3236,1226,2546,763,-7524,-3420,
440,7,20,2023,11,29,15,16,-3537,1311,2766,410,-7668,-3055,
441,7,20,2023,11,29,15,26,-3794,1180,2920,9,-7826,-2668,
442,7,20,2023,11,29,15,36,-3922,830,2980,-312,-7980,-2299,
443,7,20,2023,11,29,15,46,-3984,387,3017,-435,-8091,-1963,
444,7,20,2023,11,29,15,56,-4108,54,3158,-402,-8125,-1702,
445,7,20,2023,11,29,15,66,-4310,-203,3318,-321,-8127,-1552,
446,7,20,2023,11,29,15,76,-4548,-456,3453,-235,-8127,-1510,
447,7,20,2023,11,29,15,86,-4752,-664,3514,-157,-8143,-1556,
448,7,20,2023,11,29,15,96,-4899,-787,3561,-73,-8127,-1671,
449,7,20,2023,11,29,15,106,-4985,-824,3627,-10,-8061,-1859,
450,7,20,2023,11,29,15,116,-5115,-792,3752,12,-7931,-2097,
451,7,20,2023,11,29,15,126,-5269,-727,3920,16,-7793,-2322,
452,7,20,2023,11,29,15,136,-5385,-711,4111,24,-7675,-2452,
453,7,20,2023,11,29,15,146,-5634,-671,4442,29,-7568,-2495,
454,7,20,2023,11,29,15,156,-5886,-665,4759,-6,-7565,-2469,
455,7,20,2023,11,29,15,166,-5959,-788,4870,-65,-7716,-2376,
456,7,20,2023,11,29,15,176,-5922,-872,4690,-83,-7919,-2237,
457,7,20,2023,11,29,15,186,-5668,-960,4276,-55,-8062,-2080,
458,7,20,2023,11,29,15,196,-5278,-1058,3681,-58,-8068,-1955,
459,7,20,2023,11,29,15,206,-5147,-1176,3233,-106,-7860,-1904,
460,7,20,2023,11,29,15,216,-5426,-1249,3056,-193,-7533,-1912,
461,7,20,2023,11,29,15,226,-5516,-1226,2671,-334,-7283,-1921,
462,7,20,2023,11,29,15,236,-5453,-1038,2244,-574,-6987,-1941,
463,7,20,2023,11,29,15,246,-5377,-618,1821,-946,-6599,-1994,
464,7,20,2023,11,29,15,256,-5378,-22,1351,-1512,-6120,-2108,
465,7,20,2023,11,29,15,266,-5477,433,879,-2190,-5583,-2266,
466,7,20,2023,11,29,15,276,-5780,534,425,-2744,-4996,-2399,
467,7,20,2023,11,29,15,286,-6250,309,-149,-2771,-4415,-2387,
468,7,20,2023,11,29,15,296,-6505,257,-984,-1975,-3846,-2156,
469,7,20,2023,11,29,15,306,-6438,640,-1870,-565,-3093,-1745,
470,7,20,2023,11,29,15,316,-6301,1224,-2471,794,-1986,-1337,
471,7,20,2023,11,29,15,326,-6326,1395,-2368,1617,-593,-1076,
472,7,20,2023,11,29,15,336,-6646,1003,-1564,1968,749,-987,
473,7,20,2023,11,29,15,346,-6870,328,-630,2215,1704,-1004,
474,7,20,2023,11,29,15,356,-6591,-38,-36,2639,2293,-1037,
475,7,20,2023,11,29,15,366,3891,2381,6258,2706,2850,-780,
476,7,20,2023,11,29,15,376,3761,-2171,14200,613,3055,-679,
477,7,20,2023,11,29,15,386,7817,-3676,5741,894,602,-19,
478,7,20,2023,11,29,15,396,5228,913,-3407,1804,1913,2104,
479,7,20,2023,11,29,15,406,-3682,596,2813,1478,5751,2108,
480,7,20,2023,11,29,15,416,-7649,168,7587,664,5698,701,
481,7,20,2023,11,29,15,426,-3846,1228,5927,434,3484,393,
482,7,20,2023,11,29,15,436,61,1063,4059,487,2973,1079,
483,7,20,2023,11,29,15,446,-1312,-279,4988,-5,3914,1168,
484,7,20,2023,11,29,15,456,-3319,-1306,5381,-310,4096,633,
485,7,20,2023,11,29,15,466,-3005,-945,4935,-289,3726,339,
486,7,20,2023,11,29,15,476,-2475,-401,4876,-280,3596,158,
487,7,20,2023,11,29,15,486,-2461,-340,4628,-399,3464,43,
488,7,20,2023,11,29,15,496,-2160,-852,4242,-510,3239,-20,
489,7,20,2023,11,29,15,506,-2246,-1564,4271,-424,3030,-30,
490,7,20,2023,11,29,15,516,-2183,-1665,3905,-207,2653,-26,
491,7,20,2023,11,29,15,526,-2497,-1336,4208,25,2387,-10,
492,7,20,2023,11,29,15,536,-2944,-651,4394,186,1984,11,
493,7,20,2023,11,29,15,546,-2980,-511,4444,280,1457,95,
494,7,20,2023,11,29,15,556,-1974,-635,3901,230,992,79,
495,7,20,2023,11,29,15,566,-1762,-755,3991,191,881,101,
496,7,20,2023,11,29,15,576,-1620,-458,3850,127,706,127,
497,7,20,2023,11,29,15,586,-1647,-542,3900,80,580,159,
498,7,20,2023,11,29,15,596,-1715,-613,3809,79,505,159,
499,7,20,2023,11,29,15,606,-1492,-818,3678,106,471,150,
500,7,20,2023,11,29,15,616,-1443,-898,3665,155,475,179,
501,7,20,2023,11,29,15,626,-1703,-888,3710,225,493,229,
502,7,20,2023,11,29,15,636,-1649,-642,3720,246,480,245,
503,7,20,2023,11,29,15,646,-1414,-678,3683,231,491,252,
504,7,20,2023,11,29,15,656,-1375,-890,3639,242,559,273,
505,7,20,2023,11,29,15,666,-1362,-767,3638,308,617,322,
506,7,20,2023,11,29,15,676,-1334,-688,3593,389,674,400,
507,7,20,2023,11,29,15,686,-1654,-785,3588,501,782,473,
508,7,20,2023,11,29,15,696,-1681,-823,3564,607,852,551,
509,7,20,2023,11,29,15,706,-1773,-871,3615,740,888,643,
510,7,20,2023,11,29,15,716,-1973,-759,3740,916,877,719,
511,7,20,2023,11,29,15,736,-1919,-623,3729,1017,631,777,
512,7,20,2023,11,29,15,746,-1943,-598,3784,1007,490,802,
513,7,20,2023,11,29,15,756,-1992,-477,3739,940,365,782,
514,7,20,2023,11,29,15,766,-1848,-255,3764,842,308,723,
515,7,20,2023,11,29,15,776,-1799,-304,3735,766,305,675,
516,7,20,2023,11,29,15,786,-1793,-284,3748,721,319,650,
517,7,20,2023,11,29,15,796,-1883,-49,3766,628,364,594,
518,7,20,2023,11,29,15,806,-1740,-56,3776,512,437,510,
519,7,20,2023,11,29,15,816,-1737,-154,3787,412,533,444,
520,7,20,2023,11,29,15,826,-1809,-169,3788,354,617,404,
521,7,20,2023,11,29,15,836,-1869,-212,3777,327,688,377,
522,7,20,2023,11,29,15,846,-1849,-346,3732,322,722,372,
523,7,20,2023,11,29,15,856,-1636,-511,3753,340,739,405,
524,7,20,2023,11,29,15,866,-1748,-490,3672,352,739,458,
525,7,20,2023,11,29,15,876,-1900,-358,3560,337,748,513,
526,7,20,2023,11,29,15,886,-2004,-353,3482,315,736,559,
527,7,20,2023,11,29,15,896,-2108,-214,3406,290,660,595,
528,7,20,2023,11,29,15,906,-2217,-143,3354,234,556,593,
529,7,20,2023,11,29,15,916,-2251,-126,3342,172,472,506,
530,7,20,2023,11,29,15,926,-2222,-138,3387,136,401,394,
531,7,20,2023,11,29,15,936,-2086,-221,3466,138,317,328,
532,7,20,2023,11,29,15,946,-2062,-183,3510,162,244,294,
533,7,20,2023,11,29,15,956,-2138,-147,3497,180,182,265,
534,7,20,2023,11,29,15,966,-2093,-226,3515,189,117,246,
535,7,20,2023,11,29,15,976,-2077,-299,3554,210,70,253,
536,7,20,2023,11,29,15,986,-2026,-152,3579,214,56,279,
537,7,20,2023,11,29,15,996,-2117,20,3457,201,44,269,
538,7,20,2023,11,29,16,6,-2006,-23,3426,165,-45,204,
539,7,20,2023,11,29,16,16,-2009,-166,3363,123,-157,152,
540,7,20,2023,11,29,16,26,-1990,-204,3434,110,-253,127,
541,7,20,2023,11,29,16,36,-2002,-300,3473,108,-304,120,
542,7,20,2023,11,29,16,46,-1932,-345,3469,134,-333,133,
543,7,20,2023,11,29,16,56,-1872,-277,3518,171,-323,152,
544,7,20,2023,11,29,16,66,-1836,-126,3599,199,-233,157,
545,7,20,2023,11,29,16,76,-1769,19,3731,196,-81,136,
546,7,20,2023,11,29,16,86,-1720,76,3804,147,146,101,
547,7,20,2023,11,29,16,96,-1834,53,3781,78,404,71,
548,7,20,2023,11,29,16,106,-1843,-4,3685,14,620,40,
549,7,20,2023,11,29,16,116,-1815,59,3710,-42,808,3,
550,7,20,2023,11,29,16,126,-1781,69,3728,-113,1034,-46,
551,7,20,2023,11,29,16,136,-1784,26,3740,-189,1327,-113,
552,7,20,2023,11,29,16,146,-1730,-91,3739,-264,1668,-150,
553,7,20,2023,11,29,16,156,-1788,-148,3658,-272,1993,-171,
554,7,20,2023,11,29,16,166,-1904,-192,3524,-258,2236,-144,
555,7,20,2023,11,29,16,176,-2132,-208,3453,-236,2388,-95,
556,7,20,2023,11,29,16,186,-2058,-217,3488,-236,2498,-52,
557,7,20,2023,11,29,16,196,-2039,-261,3488,-242,2635,20,
558,7,20,2023,11,29,16,206,-2083,-178,3573,-244,2843,92,
559,7,20,2023,11,29,16,216,-2053,-161,3516,-296,3129,138,
560,7,20,2023,11,29,16,226,-1998,-169,3487,-343,3431,198,
561,7,20,2023,11,29,16,236,-2162,-248,3340,-352,3707,232,
562,7,20,2023,11,29,16,246,-2400,-247,3139,-285,3888,238,
563,7,20,2023,11,29,16,256,-2697,-320,2882,-231,3886,270,
564,7,20,2023,11,29,16,266,-3026,-166,2720,-192,3719,314,
565,7,20,2023,11,29,16,276,-3013,-248,2686,-227,3486,352,
566,7,20,2023,11,29,16,286,-2977,-234,2825,-225,3319,379,
567,7,20,2023,11,29,16,296,-2918,-337,2915,-248,3366,428,
568,7,20,2023,11,29,16,306,-2398,-378,3309,-277,3737,511,
569,7,20,2023,11,29,16,316,-2195,-554,3678,-316,4548,629,
570,7,20,2023,11,29,16,326,-1969,-669,3744,-207,5712,755,
571,7,20,2023,11,29,16,336,-2181,-486,3462,-57,6989,912,
572,7,20,2023,11,29,16,346,-2456,-161,3060,34,8130,1019,
573,7,20,2023,11,29,16,356,-2749,-146,2692,172,9018,1051,
574,7,20,2023,11,29,16,366,-3353,333,2291,367,9577,814,
575,7,20,2023,11,29,16,376,-3763,446,2291,403,9925,471,
576,7,20,2023,11,29,16,386,-3691,-16,2554,396,10235,203,
577,7,20,2023,11,29,16,396,-3942,-102,2885,438,10667,141,
578,7,20,2023,11,29,16,406,-4948,-727,3409,457,11139,251,
579,7,20,2023,11,29,16,416,-5751,-518,3650,519,11332,379,
580,7,20,2023,11,29,16,426,-6414,-582,3693,452,11135,613,
581,7,20,2023,11,29,16,436,-7656,-480,4173,389,10531,879,
582,7,20,2023,11,29,16,446,-8718,-357,4300,252,9295,1129,
583,7,20,2023,11,29,16,456,-8877,-623,3864,-93,7534,1317,
584,7,20,2023,11,29,16,466,-7621,-910,3660,-628,5749,1385,
585,7,20,2023,11,29,16,476,-5305,-597,3747,-1292,4092,1248,
586,7,20,2023,11,29,16,486,-3056,-1053,1699,-1999,2617,1080,
587,7,20,2023,11,29,16,496,-581,-1590,928,-1951,2233,986,
588,7,20,2023,11,29,16,506,-4027,-322,6216,-1945,1816,1030,
589,7,20,2023,11,29,16,516,-7776,-1792,7635,-2444,-1463,954,
590,7,20,2023,11,29,16,526,1303,-4193,890,-1808,-4801,45,
591,7,20,2023,11,29,16,536,1730,-2579,-348,-457,-3616,-1029,
592,7,20,2023,11,29,16,546,-295,-427,1396,399,-2074,-1909,
593,7,20,2023,11,29,16,556,-721,562,2262,-146,-2030,-2587,
594,7,20,2023,11,29,16,566,-684,595,2547,-1132,-2676,-2845,
595,7,20,2023,11,29,16,576,-328,194,2036,-1617,-3401,-2706,
596,7,20,2023,11,29,16,596,-356,561,1898,-731,-4065,-1590,
597,7,20,2023,11,29,16,606,-468,941,2118,-449,-4482,-999,
598,7,20,2023,11,29,16,616,-388,818,1994,-609,-5037,-610,
599,7,20,2023,11,29,16,626,-230,405,1661,-863,-5534,-442,
600,7,20,2023,11,29,16,636,-142,41,1375,-965,-5865,-431,
601,7,20,2023,11,29,16,646,-209,-215,1290,-909,-6047,-521,
602,7,20,2023,11,29,16,656,-379,-483,1272,-783,-6149,-711,
603,7,20,2023,11,29,16,666,-451,-636,1242,-559,-6174,-1012,
604,7,20,2023,11,29,16,676,-589,-416,1362,-349,-6074,-1397,
605,7,20,2023,11,29,16,686,-823,-28,1578,-324,-5931,-1757,
606,7,20,2023,11,29,16,696,-894,271,1566,-380,-5817,-1924,
607,7,20,2023,11,29,16,706,-790,413,1329,-356,-5624,-1811,
608,7,20,2023,11,29,16,716,-587,662,1071,-183,-5228,-1427,
609,7,20,2023,11,29,16,726,-419,950,987,25,-4580,-831,
610,7,20,2023,11,29,16,736,-401,1099,1069,110,-3766,-137,
611,7,20,2023,11,29,16,746,-571,1041,1325,17,-2880,497,
612,7,20,2023,11,29,16,756,-1043,759,1747,-213,-1980,953,
613,7,20,2023,11,29,16,766,-1940,435,2259,-529,-1124,1110,
614,7,20,2023,11,29,16,776,-3092,226,2733,-881,-469,935,
615,7,20,2023,11,29,16,786,-4354,-145,2951,-1293,-146,548,
616,7,20,2023,11,29,16,796,-5880,-531,2977,-1617,-44,-1,
617,7,20,2023,11,29,16,806,-7571,-930,2826,-1687,-93,-613,
618,7,20,2023,11,29,16,816,-9276,-1159,2588,-1572,-369,-1164,
619,7,20,2023,11,29,16,826,-10535,-1078,2174,-1234,-1043,-1592,
620,7,20,2023,11,29,16,836,-11130,-1179,1394,-595,-1994,-1794,
621,7,20,2023,11,29,16,846,-10935,-539,346,241,-2967,-1670,
622,7,20,2023,11,29,16,856,-10110,618,-783,1022,-3690,-1270,
623,7,20,2023,11,29,16,866,-8829,1753,-1687,1255,-3987,-829,
624,7,20,2023,11,29,16,876,-7044,2560,-2340,796,-3846,-298,
625,7,20,2023,11,29,16,886,-5405,2776,-2840,-234,-3254,286,
626,7,20,2023,11,29,16,896,-4902,2081,-2839,-1501,-2136,755,
627,7,20,2023,11,29,16,906,-5094,783,-2493,-2423,-932,1150,
628,7,20,2023,11,29,16,916,-5500,-482,-2090,-2758,-77,1426,
629,7,20,2023,11,29,16,926,-5849,-1480,-1706,-2699,341,1410,
630,7,20,2023,11,29,16,936,-6001,-2075,-1409,-2407,379,1003,
631,7,20,2023,11,29,16,946,-5772,-2087,-1316,-1978,247,318,
632,7,20,2023,11,29,16,956,-5111,-1508,-1465,-1659,253,-463,
633,7,20,2023,11,29,16,966,-4509,-744,-1508,-1536,625,-1149,
634,7,20,2023,11,29,16,976,-4342,-89,-1252,-1554,1279,-1509,
635,7,20,2023,11,29,16,986,-4477,235,-752,-1638,1953,-1520,
636,7,20,2023,11,29,16,996,-4622,-74,-180,-1676,2424,-1393,
637,7,20,2023,11,29,17,6,-4605,-892,120,-1449,2647,-1264,
638,7,20,2023,11,29,17,16,-4271,-1558,69,-823,2807,-1225,
639,7,20,2023,11,29,17,26,-3814,-1990,-321,68,3126,-1332,
640,7,20,2023,11,29,17,36,-7020,-5260,1712,1466,3730,-1151,
641,7,20,2023,11,29,17,46,-21890,-10480,17078,8635,1726,1553,
642,7,20,2023,11,29,17,56,-8039,8005,3339,11064,-8752,-499,
643,7,20,2023,11,29,17,66,-5055,4277,2020,4410,-11398,-226,
644,7,20,2023,11,29,17,76,-3216,-7067,3570,-310,-12173,672,
645,7,20,2023,11,29,17,86,459,-3249,5825,2497,-11559,969,
646,7,20,2023,11,29,17,96,302,2104,6141,2528,-10319,1272,
647,7,20,2023,11,29,17,106,-1931,-3449,3698,1351,-9562,1579,
648,7,20,2023,11,29,17,116,-1177,-832,4326,2866,-8670,1591,
649,7,20,2023,11,29,17,126,-147,-564,4564,3123,-7812,1897,
650,7,20,2023,11,29,17,136,-1440,1391,4035,2805,-6552,1471,
651,7,20,2023,11,29,17,146,-1766,1845,3934,1876,-5036,1033,
652,7,20,2023,11,29,17,156,-2034,1169,4123,1326,-3622,598,
653,7,20,2023,11,29,17,166,-1415,696,4353,919,-2430,341,
654,7,20,2023,11,29,17,176,-1463,816,4330,446,-1363,202,
655,7,20,2023,11,29,17,186,-1768,648,4116,-39,-480,32,
656,7,20,2023,11,29,17,196,-1862,120,3867,-373,71,-128,
657,7,20,2023,11,29,17,206,-1857,-216,3732,-452,337,-169,
658,7,20,2023,11,29,17,216,-1982,-409,3613,-421,435,-151,
659,7,20,2023,11,29,17,226,-1940,-590,3474,-319,371,-119,
660,7,20,2023,11,29,17,236,-1846,-479,3523,-181,259,-45,
661,7,20,2023,11,29,17,246,-1707,-363,3618,-88,251,6,
662,7,20,2023,11,29,17,256,-1626,-357,3717,-66,339,20,
663,7,20,2023,11,29,17,266,-1761,-268,3705,-83,488,28,
664,7,20,2023,11,29,17,276,-1841,-223,3686,-113,628,30,
665,7,20,2023,11,29,17,286,-1917,-160,3644,-141,720,14,
666,7,20,2023,11,29,17,296,-1961,-86,3599,-184,781,-22,
667,7,20,2023,11,29,17,306,-1953,-129,3586,-237,837,-68,
668,7,20,2023,11,29,17,316,-1931,-320,3558,-266,880,-102,
669,7,20,2023,11,29,17,326,-1918,-402,3550,-266,902,-99,
670,7,20,2023,11,29,17,336,-1936,-340,3532,-271,897,-63,
671,7,20,2023,11,29,17,346,-1967,-333,3479,-282,869,-14,
672,7,20,2023,11,29,17,356,-2053,-240,3452,-292,801,13,
673,7,20,2023,11,29,17,366,-2125,-137,3421,-325,703,1,
674,7,20,2023,11,29,17,376,-2179,-212,3407,-373,576,-44,
675,7,20,2023,11,29,17,386,-2267,-395,3357,-374,417,-75,
676,7,20,2023,11,29,17,396,-2256,-510,3351,-313,208,-91,
677,7,20,2023,11,29,17,406,-2330,-455,3357,-214,-13,-93,
678,7,20,2023,11,29,17,416,-2298,-366,3370,-117,-213,-107,
679,7,20,2023,11,29,17,426,-2191,-342,3404,-41,-366,-118,
680,7,20,2023,11,29,17,436,-2046,-370,3387,37,-435,-89,
681,7,20,2023,11,29,17,456,-1786,-584,3495,207,-526,61,
682,7,20,2023,11,29,17,466,-1992,-424,3504,257,-479,136,
683,7,20,2023,11,29,17,476,-1719,-530,3350,293,-461,187,
684,7,20,2023,11,29,17,486,-1687,-494,3516,305,-464,257,
685,7,20,2023,11,29,17,496,-2065,-350,3503,298,-385,298,
686,7,20,2023,11,29,17,506,-2041,-127,3501,290,-344,279,
687,7,20,2023,11,29,17,516,-2112,-90,3509,258,-357,225,
688,7,20,2023,11,29,17,526,-2023,-175,3489,222,-350,161,
689,7,20,2023,11,29,17,536,-1837,-344,3488,220,-324,140,
690,7,20,2023,11,29,17,546,-1618,-227,3673,222,-187,147,
691,7,20,2023,11,29,17,556,-1628,-190,3685,182,71,157,
692,7,20,2023,11,29,17,566,-1665,-253,3663,154,307,174,
693,7,20,2023,11,29,17,576,-1879,-204,3621,136,495,219,
694,7,20,2023,11,29,17,586,-1944,-95,3660,115,681,242,
695,7,20,2023,11,29,17,596,-1743,-50,3771,55,925,215,
696,7,20,2023,11,29,17,606,-1648,-106,3834,-41,1261,201,
697,7,20,2023,11,29,17,616,-1479,-138,3947,-176,1705,250,
698,7,20,2023,11,29,17,626,-1541,-212,3938,-326,2220,326,
699,7,20,2023,11,29,17,636,-1663,-381,3844,-449,2716,386,
700,7,20,2023,11,29,17,646,-1829,-363,3790,-470,3160,428,
701,7,20,2023,11,29,17,656,-1928,-476,3699,-476,3559,483,
702,7,20,2023,11,29,17,666,-2086,-397,3635,-389,3950,523,
703,7,20,2023,11,29,17,676,-1884,-453,3859,-437,4514,607,
704,7,20,2023,11,29,17,686,-1672,-547,4124,-473,5349,683,
705,7,20,2023,11,29,17,696,-1444,-467,4296,-458,6556,764,
706,7,20,2023,11,29,17,706,-1306,-694,4353,-377,8095,856,
707,7,20,2023,11,29,17,716,-1331,-954,4358,-100,9981,1040,
708,7,20,2023,11,29,17,726,-1443,-1243,4797,185,12325,1471,
709,7,20,2023,11,29,17,736,-1614,-1698,5292,618,14729,2122,
710,7,20,2023,11,29,17,746,-2587,-1849,5713,1313,16593,2902,
711,7,20,2023,11,29,17,756,-4171,-1326,6887,1944,17366,3578,
712,7,20,2023,11,29,17,766,-7333,-597,7465,2202,16373,3956,
713,7,20,2023,11,29,17,776,-8080,46,7337,1901,13598,3776,
714,7,20,2023,11,29,17,786,-2139,-176,5117,1116,10237,3451,
715,7,20,2023,11,29,17,796,4293,-828,2202,388,8310,2943,
716,7,20,2023,11,29,17,806,5969,1446,5517,-345,7150,2470,
717,7,20,2023,11,29,17,816,-4907,1036,12201,-1480,3428,3060,
718,7,20,2023,11,29,17,826,1878,-4454,6301,-1952,-3357,2183,
719,7,20,2023,11,29,17,836,5719,-5342,582,-1094,-5501,612,
720,7,20,2023,11,29,17,846,3182,-3515,980,164,-4485,-1044,
721,7,20,2023,11,29,17,856,1648,-2409,2050,307,-4287,-2887,
722,7,20,2023,11,29,17,866,1135,-1958,2353,-259,-5083,-4522,
723,7,20,2023,11,29,17,876,1364,-1587,1541,-442,-6003,-5659,
724,7,20,2023,11,29,17,886,1209,-571,978,-52,-6327,-6212,
725,7,20,2023,11,29,17,896,772,969,700,478,-6183,-6227,
726,7,20,2023,11,29,17,906,568,2241,484,755,-5758,-5660,
727,7,20,2023,11,29,17,916,397,2857,509,721,-5013,-4323,
728,7,20,2023,11,29,17,926,-526,2912,1004,476,-3989,-2383,
729,7,20,2023,11,29,17,936,-1940,2408,1721,129,-3043,-305,
730,7,20,2023,11,29,17,946,-3313,1704,2306,-246,-2387,1401,
731,7,20,2023,11,29,17,956,-4270,1424,2565,-675,-1921,2409,
732,7,20,2023,11,29,17,966,-5425,986,2637,-1388,-1468,2726,
733,7,20,2023,11,29,17,976,-6769,336,2514,-2314,-1207,2543,
734,7,20,2023,11,29,17,986,-8224,-637,2275,-3215,-1287,1900,
735,7,20,2023,11,29,17,996,-9473,-1561,1892,-3822,-1633,809,
736,7,20,2023,11,29,18,6,-10364,-2183,1300,-3943,-2130,-505,
737,7,20,2023,11,29,18,16,-10793,-2611,433,-3491,-2638,-1903,
738,7,20,2023,11,29,18,26,-10720,-2699,-564,-2323,-3036,-3158,
739,7,20,2023,11,29,18,36,-10123,-2196,-1483,-617,-3234,-3963,
740,7,20,2023,11,29,18,46,-9100,-1131,-2157,1152,-3114,-4190,
741,7,20,2023,11,29,18,56,-7794,160,-2505,2663,-2645,-3937,
742,7,20,2023,11,29,18,66,-6134,1506,-2716,3610,-1993,-3314,
743,7,20,2023,11,29,18,76,-5378,2690,-2357,3677,-1028,-2534,
744,7,20,2023,11,29,18,86,-5532,3047,-1523,2759,2,-1687,
745,7,20,2023,11,29,18,96,-5969,2471,-801,1186,568,-854,
746,7,20,2023,11,29,18,106,-6511,955,-291,-416,490,-173,
747,7,20,2023,11,29,18,116,-6691,-685,-80,-1349,-174,291,
748,7,20,2023,11,29,18,126,-6209,-1624,-281,-1598,-1147,497,
749,7,20,2023,11,29,18,136,-5261,-1664,-729,-1758,-1888,244,
750,7,20,2023,11,29,18,146,-4431,-1345,-1041,-2184,-2001,-462,
751,7,20,2023,11,29,18,156,-3956,-959,-1218,-2952,-1537,-1360,
752,7,20,2023,11,29,18,166,-3660,-625,-1361,-3648,-798,-2056,
753,7,20,2023,11,29,18,176,-3404,-217,-1573,-3881,134,-2276,
754,7,20,2023,11,29,18,186,-3475,46,-1560,-3532,1211,-1871,
755,7,20,2023,11,29,18,196,-3886,412,-1189,-2699,2214,-1041,
756,7,20,2023,11,29,18,206,-4306,294,-545,-1823,2851,-248,
757,7,20,2023,11,29,18,216,-4316,-163,-92,-909,3072,142,
758,7,20,2023,11,29,18,226,-3979,-819,123,172,3150,155,
759,7,20,2023,11,29,18,236,-7835,-6240,3465,1951,3226,281,
760,7,20,2023,11,29,18,246,-16779,-11460,13753,9361,396,1479,
761,7,20,2023,11,29,18,256,-5416,8575,2132,11221,-7371,-1225,
762,7,20,2023,11,29,18,266,-8226,6332,5667,4797,-8998,-964,
763,7,20,2023,11,29,18,276,-4629,-5477,2208,-1778,-12209,-514,
764,7,20,2023,11,29,18,286,-826,-4802,2644,627,-12116,-544,
765,7,20,2023,11,29,18,296,112,3791,6733,2670,-10309,-600,
766,7,20,2023,11,29,18,316,-1490,-4420,3995,1204,-7928,546,
767,7,20,2023,11,29,18,326,-160,-1561,5097,2772,-6582,1329,
768,7,20,2023,11,29,18,336,-1791,-1163,3825,3154,-5468,1467,
769,7,20,2023,11,29,18,346,-2425,330,3844,3529,-4742,1172,
770,7,20,2023,11,29,18,356,-1316,2147,4215,2772,-3957,945,
771,7,20,2023,11,29,18,366,-2039,825,3848,1812,-2962,675,
772,7,20,2023,11,29,18,376,-1572,-489,3957,1535,-2379,659,
773,7,20,2023,11,29,18,386,-1759,-279,3921,1529,-2055,776,
774,7,20,2023,11,29,18,396,-1746,90,3826,1390,-1745,777,
775,7,20,2023,11,29,18,406,-1832,-99,3744,1236,-1471,706,
776,7,20,2023,11,29,18,416,-1697,28,3676,1148,-1307,645,
777,7,20,2023,11,29,18,426,-1595,289,3795,1030,-1138,578,
778,7,20,2023,11,29,18,436,-1718,558,3886,794,-884,458,
779,7,20,2023,11,29,18,446,-1568,512,3904,441,-533,271,
780,7,20,2023,11,29,18,456,-1415,247,3923,73,-152,96,
781,7,20,2023,11,29,18,466,-1517,49,3873,-178,183,12,
782,7,20,2023,11,29,18,476,-1596,-177,3806,-298,425,-2,
783,7,20,2023,11,29,18,486,-1686,-408,3715,-310,543,25,
784,7,20,2023,11,29,18,496,-1922,-464,3603,-235,540,76,
785,7,20,2023,11,29,18,506,-2079,-371,3547,-132,435,113,
786,7,20,2023,11,29,18,516,-2071,-322,3562,-33,289,114,
787,7,20,2023,11,29,18,526,-2009,-307,3540,61,153,110,
788,7,20,2023,11,29,18,536,-1905,-303,3586,133,33,110,
789,7,20,2023,11,29,18,546,-1927,-174,3622,176,-47,110,
790,7,20,2023,11,29,18,556,-1947,92,3642,178,-93,95,
791,7,20,2023,11,29,18,566,-1806,127,3592,127,-102,41,
792,7,20,2023,11,29,18,576,-1521,-24,3584,54,-61,-12,
793,7,20,2023,11,29,18,586,-1287,-175,3638,-16,39,-14,
794,7,20,2023,11,29,18,596,-1233,-350,3694,-76,179,40,
795,7,20,2023,11,29,18,606,-1257,-377,3691,-77,329,140,
796,7,20,2023,11,29,18,616,-1386,-389,3670,-36,484,265,
797,7,20,2023,11,29,18,626,-1602,-437,3589,4,620,376,
798,7,20,2023,11,29,18,636,-1858,-154,3550,33,718,442,
799,7,20,2023,11,29,18,646,-2041,173,3564,16,744,429,
800,7,20,2023,11,29,18,656,-2045,296,3571,-83,757,311,
801,7,20,2023,11,29,18,666,-1849,168,3678,-219,823,168,
802,7,20,2023,11,29,18,676,-1575,-34,3780,-325,979,103,
803,7,20,2023,11,29,18,686,-1528,-250,3733,-366,1175,116,
804,7,20,2023,11,29,18,696,-1620,-295,3647,-373,1337,178,
805,7,20,2023,11,29,18,706,-2043,-228,3459,-320,1372,245,
806,7,20,2023,11,29,18,716,-2360,68,3379,-282,1298,256,
807,7,20,2023,11,29,18,726,-2272,68,3449,-302,1208,191,
808,7,20,2023,11,29,18,736,-2165,-109,3548,-330,1167,118,
809,7,20,2023,11,29,18,746,-1953,-253,3690,-368,1247,124,
810,7,20,2023,11,29,18,756,-1729,-399,3853,-398,1466,180,
811,7,20,2023,11,29,18,766,-1540,-467,3922,-358,1831,260,
812,7,20,2023,11,29,18,776,-1646,-476,3881,-320,2252,364,
813,7,20,2023,11,29,18,786,-2087,-266,3697,-336,2617,522,
814,7,20,2023,11,29,18,796,-1921,-67,3776,-379,3059,579,
815,7,20,2023,11,29,18,806,-1531,-232,4022,-469,3702,584,
816,7,20,2023,11,29,18,816,-1301,-488,4269,-536,4541,619,
817,7,20,2023,11,29,18,826,-1605,-564,4289,-541,5503,682,
818,7,20,2023,11,29,18,836,-1678,-429,4291,-571,6633,725,
819,7,20,2023,11,29,18,846,-1557,-423,4357,-540,7890,716,
820,7,20,2023,11,29,18,856,-1620,-627,4227,-404,9116,761,
821,7,20,2023,11,29,18,866,-2038,-641,4223,-134,10400,908,
822,7,20,2023,11,29,18,876,-2217,-705,4711,184,11882,1190,
823,7,20,2023,11,29,18,886,-2781,-1038,5478,602,13149,1479,
824,7,20,2023,11,29,18,896,-3326,-1038,5545,1117,13701,1684,
825,7,20,2023,11,29,18,906,-3473,-975,5040,1459,13521,1867,
826,7,20,2023,11,29,18,916,-2792,-963,4258,1541,13027,2108,
827,7,20,2023,11,29,18,926,-2110,-1422,3265,1604,12442,2485,
828,7,20,2023,11,29,18,936,508,-1271,2431,1789,11518,2337,
829,7,20,2023,11,29,18,946,3344,151,4528,1574,10250,1774,
830,7,20,2023,11,29,18,956,3334,1083,8425,-87,7682,1061,
831,7,20,2023,11,29,18,966,-4717,-449,11894,-2120,3094,116,
832,7,20,2023,11,29,18,976,1610,-3419,7066,-2918,-3388,-1030,
833,7,20,2023,11,29,18,986,3918,-3847,2585,-2091,-6077,-1798,
834,7,20,2023,11,29,18,996,3684,-2539,1215,-497,-6043,-2350,
835,7,20,2023,11,29,19,6,2527,-862,1550,247,-5577,-2958,
836,7,20,2023,11,29,19,16,1313,251,2350,-123,-5506,-3522,
837,7,20,2023,11,29,19,26,692,517,2480,-1045,-5902,-3958,
838,7,20,2023,11,29,19,36,436,277,2096,-1659,-6291,-4058,
839,7,20,2023,11,29,19,46,170,145,1377,-1452,-6354,-3673,
840,7,20,2023,11,29,19,56,46,146,805,-574,-5856,-2804,
841,7,20,2023,11,29,19,66,-419,468,865,422,-4763,-1607,
842,7,20,2023,11,29,19,76,-1338,922,1508,954,-3505,-384,
843,7,20,2023,11,29,19,86,-2390,1195,2300,814,-2460,555,
844,7,20,2023,11,29,19,96,-3284,1159,2878,141,-1756,1052,
845,7,20,2023,11,29,19,106,-4078,1025,3077,-856,-1332,1167,
846,7,20,2023,11,29,19,116,-5290,865,3072,-1841,-1029,1130,
847,7,20,2023,11,29,19,126,-6878,805,2936,-2695,-903,1004,
848,7,20,2023,11,29,19,136,-8590,440,2698,-3553,-1058,671,
849,7,20,2023,11,29,19,146,-10156,-191,2152,-4355,-1515,59,
850,7,20,2023,11,29,19,156,-11248,-959,1299,-4825,-2187,-744,
851,7,20,2023,11,29,19,176,-10734,-2243,-1450,-3312,-3479,-1923,
852,7,20,2023,11,29,19,186,-9414,-2227,-2622,-1435,-3515,-1923,
853,7,20,2023,11,29,19,196,-8165,-1486,-3221,453,-3048,-1611,
854,7,20,2023,11,29,19,206,-6758,-423,-3456,1873,-2382,-1220,
855,7,20,2023,11,29,19,216,-6052,662,-3283,2354,-1447,-1141,
856,7,20,2023,11,29,19,226,-5919,1146,-2848,1827,-402,-1330,
857,7,20,2023,11,29,19,236,-5948,897,-2490,776,349,-1477,
858,7,20,2023,11,29,19,246,-6344,156,-2149,-166,697,-1460,
859,7,20,2023,11,29,19,256,-6480,-587,-1945,-634,527,-1307,
860,7,20,2023,11,29,19,266,-6123,-770,-2132,-712,26,-1206,
861,7,20,2023,11,29,19,276,-5281,-318,-2622,-790,-329,-1392,
862,7,20,2023,11,29,19,286,-4410,370,-3443,-1158,-101,-1791,
863,7,20,2023,11,29,19,296,-3873,736,-3990,-1596,944,-1969,
864,7,20,2023,11,29,19,306,-4108,806,-3934,-1785,2434,-1690,
865,7,20,2023,11,29,19,316,-4534,605,-3463,-1520,3766,-1005,
866,7,20,2023,11,29,19,326,-5239,-1030,-2310,-679,4703,-191,
867,7,20,2023,11,29,19,336,-17936,-15595,13508,5412,4211,2930,
868,7,20,2023,11,29,19,346,-15073,2624,9507,13600,-5285,907,
869,7,20,2023,11,29,19,356,-4856,12686,3429,8821,-10794,-822,
870,7,20,2023,11,29,19,366,-4996,-3272,2514,-86,-12118,318,
871,7,20,2023,11,29,19,376,-1329,-9026,3207,610,-12278,1128,
872,7,20,2023,11,29,19,386,451,4005,6723,3875,-10936,1189,
873,7,20,2023,11,29,19,396,-1026,-1051,4227,1501,-10302,1770,
874,7,20,2023,11,29,19,406,-2317,-625,3894,1739,-9216,1238,
875,7,20,2023,11,29,19,416,-1030,143,4713,2092,-8034,1168,
876,7,20,2023,11,29,19,426,-447,-770,4562,2062,-6680,1083,
877,7,20,2023,11,29,19,436,-1521,567,4310,2223,-5166,842,
878,7,20,2023,11,29,19,446,-1573,1177,4250,1585,-3772,776,
879,7,20,2023,11,29,19,456,-2006,1267,4165,989,-2540,512,
880,7,20,2023,11,29,19,466,-1818,752,4121,534,-1542,204,
881,7,20,2023,11,29,19,476,-1724,251,4045,163,-762,25,
882,7,20,2023,11,29,19,486,-1748,-193,3871,-75,-182,-28,
883,7,20,2023,11,29,19,496,-1773,-473,3712,-140,156,12,
884,7,20,2023,11,29,19,506,-2032,-733,3540,-60,275,118,
885,7,20,2023,11,29,19,516,-2187,-870,3453,129,203,267,
886,7,20,2023,11,29,19,526,-2293,-694,3448,347,33,397,
887,7,20,2023,11,29,19,536,-2444,-469,3440,536,-160,472,
888,7,20,2023,11,29,19,546,-2534,-118,3494,665,-357,510,
889,7,20,2023,11,29,19,556,-2524,181,3537,669,-515,455,
890,7,20,2023,11,29,19,566,-2398,296,3553,585,-619,302,
891,7,20,2023,11,29,19,576,-2237,419,3571,452,-677,127,
892,7,20,2023,11,29,19,586,-2039,399,3608,307,-683,-55,
893,7,20,2023,11,29,19,596,-1888,142,3613,160,-637,-177,
894,7,20,2023,11,29,19,606,-1782,-61,3613,80,-590,-236,
895,7,20,2023,11,29,19,616,-1640,-185,3557,46,-568,-245,
896,7,20,2023,11,29,19,626,-1173,-461,3468,2,-570,-228,
897,7,20,2023,11,29,19,636,-986,-782,3578,-81,-547,-179,
898,7,20,2023,11,29,19,646,-1343,-462,3618,-108,-460,-73,
899,7,20,2023,11,29,19,656,-1749,-162,3552,-77,-359,15,
900,7,20,2023,11,29,19,666,-1935,-55,3539,-47,-311,49,
901,7,20,2023,11,29,19,676,-2044,-194,3567,1,-323,55,
902,7,20,2023,11,29,19,686,-2057,-120,3541,76,-358,68,
903,7,20,2023,11,29,19,696,-1663,-154,3498,103,-390,65,
904,7,20,2023,11,29,19,706,-1264,-330,3585,59,-356,70,
905,7,20,2023,11,29,19,716,-1093,-539,3493,47,-246,150,
906,7,20,2023,11,29,19,726,-1385,-493,3535,97,-148,297,
907,7,20,2023,11,29,19,736,-1849,65,3619,174,-18,393,
908,7,20,2023,11,29,19,746,-1813,220,3647,163,104,351,
909,7,20,2023,11,29,19,756,-1899,260,3719,93,231,270,
910,7,20,2023,11,29,19,766,-1699,158,3804,-26,428,193,
911,7,20,2023,11,29,19,776,-1269,-205,3879,-136,721,157,
912,7,20,2023,11,29,19,786,-1452,-324,3815,-152,1000,226,
913,7,20,2023,11,29,19,796,-1748,-189,3713,-124,1165,328,
914,7,20,2023,11,29,19,806,-2025,-108,3636,-105,1248,390,
915,7,20,2023,11,29,19,816,-2111,16,3650,-118,1319,403,
916,7,20,2023,11,29,19,826,-2044,123,3718,-178,1458,366,
917,7,20,2023,11,29,19,836,-1654,184,3978,-310,1826,346,
918,7,20,2023,11,29,19,846,-849,131,4368,-516,2505,348,
919,7,20,2023,11,29,19,856,-715,-430,4438,-684,3388,396,
920,7,20,2023,11,29,19,866,-1379,-398,4232,-643,4195,447,
921,7,20,2023,11,29,19,876,-1932,-272,4095,-674,4865,540,
922,7,20,2023,11,29,19,886,-1801,-139,4272,-846,5727,606,
923,7,20,2023,11,29,19,896,-1482,-75,4591,-1030,6844,518,
924,7,20,2023,11,29,19,906,-1366,-110,4787,-1185,8201,332,
925,7,20,2023,11,29,19,916,-1281,-302,5010,-1208,9801,169,
926,7,20,2023,11,29,19,926,-1316,-494,5239,-981,11478,116,
927,7,20,2023,11,29,19,936,-1566,-988,5315,-523,12958,280,
928,7,20,2023,11,29,19,946,-2203,-1424,5369,169,13948,668,
929,7,20,2023,11,29,19,956,-1995,-1764,4886,882,14245,1185,
930,7,20,2023,11,29,19,966,-1266,-1852,3471,1245,14257,1919,
931,7,20,2023,11,29,19,976,-2006,-1725,2747,1274,14128,2729,
932,7,20,2023,11,29,19,986,590,-780,2755,1228,13038,2927,
933,7,20,2023,11,29,19,996,3688,1234,5849,276,10974,2828,
934,7,20,2023,11,29,20,6,-2974,974,10048,-1333,7303,3075,
935,7,20,2023,11,29,20,16,-1953,-2295,10137,-1872,1036,3049,
936,7,20,2023,11,29,20,36,3275,-3485,2217,-776,-5272,1868,
937,7,20,2023,11,29,20,46,3088,-2521,1230,-123,-5295,1076,
938,7,20,2023,11,29,20,56,2007,-1685,1417,-326,-4988,86,
939,7,20,2023,11,29,20,66,1354,-1301,1424,-1029,-4962,-949,
940,7,20,2023,11,29,20,76,1222,-1253,1188,-1645,-4941,-1808,
941,7,20,2023,11,29,20,86,1093,-1106,1064,-1829,-4661,-2360,
942,7,20,2023,11,29,20,96,865,-663,1221,-1667,-4158,-2582,
943,7,20,2023,11,29,20,106,464,-89,1668,-1435,-3563,-2562,
944,7,20,2023,11,29,20,116,31,424,2248,-1281,-3004,-2375,
945,7,20,2023,11,29,20,126,-541,920,2882,-1247,-2526,-2088,
946,7,20,2023,11,29,20,136,-1223,1255,3480,-1383,-2165,-1790,
947,7,20,2023,11,29,20,146,-1959,1339,3843,-1689,-1934,-1577,
948,7,20,2023,11,29,20,156,-3065,1390,3881,-2073,-1701,-1522,
949,7,20,2023,11,29,20,166,-4567,1468,3690,-2505,-1442,-1645,
950,7,20,2023,11,29,20,176,-6310,1358,3287,-3046,-1311,-1903,
951,7,20,2023,11,29,20,186,-8093,1220,2864,-3533,-1328,-2244,
952,7,20,2023,11,29,20,196,-10055,900,2415,-3811,-1476,-2580,
953,7,20,2023,11,29,20,206,-11732,585,1668,-3781,-1861,-2736,
954,7,20,2023,11,29,20,216,-12241,556,689,-3321,-2445,-2542,
955,7,20,2023,11,29,20,226,-11633,663,-325,-2576,-3023,-2090,
956,7,20,2023,11,29,20,236,-10121,468,-1605,-1641,-3506,-1458,
957,7,20,2023,11,29,20,246,-8500,47,-3177,-578,-3663,-800,
958,7,20,2023,11,29,20,256,-7332,-680,-4253,521,-3126,-334,
959,7,20,2023,11,29,20,266,-6271,-1717,-5066,1527,-2149,-205,
960,7,20,2023,11,29,20,276,-6096,-2549,-5390,2365,-885,-554,
961,7,20,2023,11,29,20,286,-6314,-2469,-5014,2946,259,-1231,
962,7,20,2023,11,29,20,296,-6304,-1392,-4353,2904,1029,-2107,
963,7,20,2023,11,29,20,306,-6223,-168,-3687,1972,1465,-2914,
964,7,20,2023,11,29,20,316,-5865,739,-3199,375,1710,-3360,
965,7,20,2023,11,29,20,326,-5218,1199,-2832,-1315,1941,-3327,
966,7,20,2023,11,29,20,336,-4413,1223,-2602,-2665,2306,-2932,
967,7,20,2023,11,29,20,346,-3425,761,-2265,-3479,2936,-2182,
968,7,20,2023,11,29,20,356,-3258,-486,-1314,-3354,3829,-1127,
969,7,20,2023,11,29,20,366,-16472,-14119,9150,1503,4317,2577,
970,7,20,2023,11,29,20,376,-19550,-8811,10656,12807,-2987,3571,
971,7,20,2023,11,29,20,386,-7633,12328,-1344,11779,-11511,27,
972,7,20,2023,11,29,20,396,-8302,4912,2473,4494,-13539,1256,
973,7,20,2023,11,29,20,406,1394,-8289,4186,932,-14330,1749,
974,7,20,2023,11,29,20,416,4786,-165,8419,4179,-12164,1281,
975,7,20,2023,11,29,20,426,-665,-487,5324,3040,-10738,2180,
976,7,20,2023,11,29,20,436,-3619,-1155,3528,2639,-9306,2613,
977,7,20,2023,11,29,20,446,-579,1807,4872,3232,-7750,2379,
978,7,20,2023,11,29,20,456,-1387,956,4318,2809,-6245,1952,
979,7,20,2023,11,29,20,466,-1467,1279,4271,2520,-4904,1610,
980,7,20,2023,11,29,20,476,-1832,2232,4463,1827,-3398,1143,
981,7,20,2023,11,29,20,486,-1690,1408,4449,969,-2008,476,
982,7,20,2023,11,29,20,496,-1366,431,4301,371,-921,87,
983,7,20,2023,11,29,20,506,-1696,321,4100,36,-105,3,
984,7,20,2023,11,29,20,516,-1941,254,3900,-224,431,-67,
985,7,20,2023,11,29,20,526,-1993,-67,3753,-377,714,-143,
986,7,20,2023,11,29,20,536,-2005,-364,3673,-381,837,-132,
987,7,20,2023,11,29,20,546,-1830,-522,3613,-313,904,-44,
988,7,20,2023,11,29,20,556,-1700,-583,3609,-200,978,69,
989,7,20,2023,11,29,20,566,-2005,-462,3562,-51,1028,186,
990,7,20,2023,11,29,20,576,-2075,-186,3565,74,1021,266,
991,7,20,2023,11,29,20,586,-2178,-36,3556,107,1015,293,
992,7,20,2023,11,29,20,596,-2318,96,3507,102,992,268,
993,7,20,2023,11,29,20,606,-2324,116,3451,56,907,214,
994,7,20,2023,11,29,20,616,-2175,-10,3333,13,776,158,
995,7,20,2023,11,29,20,626,-1839,-121,3310,5,627,108,
996,7,20,2023,11,29,20,636,-1663,-406,3393,30,528,113,
997,7,20,2023,11,29,20,646,-1856,-421,3419,97,525,168,
998,7,20,2023,11,29,20,656,-1859,-263,3472,97,591,232,
999,7,20,2023,11,29,20,666,-1849,-174,3458,117,651,283,
1000,7,20,2023,11,29,20,676,-2163,73,3431,149,672,310,
1001,7,20,2023,11,29,20,686,-2227,199,3454,90,681,286,
1002,7,20,2023,11,29,20,696,-2352,226,3414,35,670,240,
1003,7,20,2023,11,29,20,706,-2254,311,3369,-37,624,175,
1004,7,20,2023,11,29,20,716,-2083,184,3274,-93,545,79,
1005,7,20,2023,11,29,20,726,-2158,-21,3256,-55,442,-9,
1006,7,20,2023,11,29,20,736,-1995,-231,3409,-47,410,18,
1007,7,20,2023,11,29,20,746,-1894,-285,3436,2,481,135,
1008,7,20,2023,11,29,20,756,-2113,-94,3355,66,551,245,
1009,7,20,2023,11,29,20,766,-2488,211,3346,66,552,289,
1010,7,20,2023,11,29,20,776,-2538,344,3511,-59,545,243,
1011,7,20,2023,11,29,20,786,-2298,267,3637,-226,647,128,
1012,7,20,2023,11,29,20,796,-2244,177,3685,-349,849,38,
1013,7,20,2023,11,29,20,806,-2052,126,3727,-478,1165,-19,
1014,7,20,2023,11,29,20,816,-1876,-49,3555,-589,1533,-41,
1015,7,20,2023,11,29,20,826,-1641,-237,3724,-651,1923,-36,
1016,7,20,2023,11,29,20,836,-1554,-389,3622,-664,2447,43,
1017,7,20,2023,11,29,20,846,-936,-780,3956,-617,3135,223,
1018,7,20,2023,11,29,20,856,-655,-975,4422,-403,4052,443,
1019,7,20,2023,11,29,20,866,-1240,-867,4410,-191,5163,734,
1020,7,20,2023,11,29,20,876,-1605,-802,4557,-96,6485,1014,
1021,7,20,2023,11,29,20,896,-522,-1061,5516,304,10216,1405,
1022,7,20,2023,11,29,20,906,-469,-1096,5685,769,12378,1717,
1023,7,20,2023,11,29,20,916,-763,-1185,5318,1451,14218,2134,
1024,7,20,2023,11,29,20,926,-604,-608,4559,1993,15737,2539,
1025,7,20,2023,11,29,20,936,-1245,37,3445,2138,16910,2962,
1026,7,20,2023,11,29,20,946,-1357,-427,4025,1671,17026,2991,
1027,7,20,2023,11,29,20,956,3472,-1544,6421,723,14964,1998,
1028,7,20,2023,11,29,20,966,-1152,-1388,12425,-609,10427,-83,
1029,7,20,2023,11,29,20,976,-7793,-4430,15787,-1736,2209,-2148,
1030,7,20,2023,11,29,20,986,3920,-5490,6242,-410,-6173,-3101,
1031,7,20,2023,11,29,20,996,6309,-2201,699,2114,-7702,-3569,
1032,7,20,2023,11,29,21,6,4529,1110,329,2604,-6308,-3809,
1033,7,20,2023,11,29,21,16,1808,2018,2239,898,-5462,-3777,
1034,7,20,2023,11,29,21,26,787,1154,2903,-999,-6045,-3578,
1035,7,20,2023,11,29,21,36,963,260,2096,-1621,-7088,-2981,
1036,7,20,2023,11,29,21,46,1506,452,664,-1012,-7527,-1897,
1037,7,20,2023,11,29,21,56,2092,1237,-636,-250,-6901,-598,
1038,7,20,2023,11,29,21,66,1908,1335,-733,-163,-5231,643,
1039,7,20,2023,11,29,21,76,497,799,304,-680,-3141,1539,
1040,7,20,2023,11,29,21,86,-1653,395,1840,-1394,-1367,1875,
1041,7,20,2023,11,29,21,96,-4040,-144,3017,-2229,-349,1615,
1042,7,20,2023,11,29,21,106,-6154,-701,3467,-2993,-94,1145,
1043,7,20,2023,11,29,21,116,-7931,-986,3415,-3572,-438,610,
1044,7,20,2023,11,29,21,126,-9307,-988,2932,-3969,-1104,-94,
1045,7,20,2023,11,29,21,136,-10364,-867,2372,-4186,-1828,-882,
1046,7,20,2023,11,29,21,146,-11073,-839,1536,-4257,-2505,-1693,
1047,7,20,2023,11,29,21,156,-11262,-668,473,-4092,-3039,-2421,
1048,7,20,2023,11,29,21,166,-10608,-334,-743,-3695,-3307,-3026,
1049,7,20,2023,11,29,21,176,-9563,366,-1724,-3152,-3117,-3426,
1050,7,20,2023,11,29,21,186,-8278,936,-2563,-2607,-2631,-3505,
1051,7,20,2023,11,29,21,196,-6784,1095,-3301,-1976,-1919,-3136,
1052,7,20,2023,11,29,21,206,-6429,1020,-3336,-1280,-834,-2482,
1053,7,20,2023,11,29,21,216,-6902,464,-2988,-680,198,-1790,
1054,7,20,2023,11,29,21,226,-7123,-377,-2904,-170,712,-1317,
1055,7,20,2023,11,29,21,236,-7252,-993,-3059,399,771,-1147,
1056,7,20,2023,11,29,21,246,-6963,-1300,-3383,932,495,-1242,
1057,7,20,2023,11,29,21,256,-6131,-975,-3959,1314,240,-1521,
1058,7,20,2023,11,29,21,266,-5003,-101,-4400,1224,506,-1838,
1059,7,20,2023,11,29,21,276,-4367,760,-4323,503,1462,-2023,
1060,7,20,2023,11,29,21,286,-4312,1590,-3907,-632,2762,-1911,
1061,7,20,2023,11,29,21,296,-4467,1820,-3288,-1670,3996,-1367,
1062,7,20,2023,11,29,21,306,-5008,263,-2093,-2145,4882,-435,
1063,7,20,2023,11,29,21,316,-19963,-17771,15257,4243,4100,3886,
1064,7,20,2023,11,29,21,326,-16177,888,9039,13829,-6700,2169,
1065,7,20,2023,11,29,21,336,-2748,14272,2337,8773,-12387,-207,
1066,7,20,2023,11,29,21,346,-6019,-3991,4011,-12,-13169,1325,
1067,7,20,2023,11,29,21,356,242,-8020,4233,1601,-13214,1383,
1068,7,20,2023,11,29,21,366,1564,4762,7884,4165,-11311,1273,
1069,7,20,2023,11,29,21,376,-2046,-2038,4102,1637,-10324,1958,
1070,7,20,2023,11,29,21,386,-3273,329,3464,2406,-9144,1287,
1071,7,20,2023,11,29,21,396,-129,-149,4718,2559,-8086,1116,
1072,7,20,2023,11,29,21,406,27,816,4826,2535,-6657,735,
1073,7,20,2023,11,29,21,416,-1595,1194,4232,1652,-4886,503,
1074,7,20,2023,11,29,21,426,-1992,1158,4254,1012,-3358,231,
1075,7,20,2023,11,29,21,436,-1175,440,4391,591,-2235,-33,
1076,7,20,2023,11,29,21,446,-1382,361,4305,188,-1264,-140,
1077,7,20,2023,11,29,21,456,-1617,524,4174,-215,-457,-198,
1078,7,20,2023,11,29,21,466,-1659,90,3914,-550,81,-318,
1079,7,20,2023,11,29,21,476,-1750,-477,3703,-641,371,-349,
1080,7,20,2023,11,29,21,486,-1755,-726,3590,-534,471,-247,
1081,7,20,2023,11,29,21,496,-1806,-978,3472,-314,449,-104,
1082,7,20,2023,11,29,21,506,-1893,-1108,3405,-35,333,45,
1083,7,20,2023,11,29,21,516,-1958,-972,3459,213,182,216,
1084,7,20,2023,11,29,21,526,-2025,-603,3538,353,94,312,
1085,7,20,2023,11,29,21,536,-2053,-343,3607,374,65,301,
1086,7,20,2023,11,29,21,546,-2051,-203,3613,338,36,248,
1087,7,20,2023,11,29,21,556,-2049,-117,3589,271,1,195,
1088,7,20,2023,11,29,21,566,-1960,-84,3607,197,-14,132,
1089,7,20,2023,11,29,21,576,-1897,29,3603,120,-13,65,
1090,7,20,2023,11,29,21,586,-1840,-54,3579,24,8,-1,
1091,7,20,2023,11,29,21,596,-1769,-226,3585,-50,51,-48,
1092,7,20,2023,11,29,21,606,-1812,-270,3546,-72,82,-55,
1093,7,20,2023,11,29,21,616,-1778,-317,3488,-44,84,-30,
1094,7,20,2023,11,29,21,626,-1558,-401,3459,-4,80,12,
1095,7,20,2023,11,29,21,636,-1121,-613,3574,35,94,75,
1096,7,20,2023,11,29,21,646,-1050,-869,3662,116,159,218,
1097,7,20,2023,11,29,21,656,-1438,-862,3586,237,320,425,
1098,7,20,2023,11,29,21,666,-1673,-631,3524,373,436,625,
1099,7,20,2023,11,29,21,676,-1962,-546,3382,513,433,761,
1100,7,20,2023,11,29,21,686,-2176,-144,3434,582,417,812,
1101,7,20,2023,11,29,21,696,-2011,222,3637,519,487,750,
1102,7,20,2023,11,29,21,706,-1614,289,3786,367,673,628,
1103,7,20,2023,11,29,21,716,-1222,-147,3751,217,888,544,
1104,7,20,2023,11,29,21,726,-1486,-522,3359,241,938,561,
1105,7,20,2023,11,29,21,736,-2399,-589,3090,403,715,667,
1106,7,20,2023,11,29,21,756,-2814,163,3366,561,64,897,
1107,7,20,2023,11,29,21,766,-2394,490,3684,448,-30,729,
1108,7,20,2023,11,29,21,776,-1620,522,4093,175,263,500,
1109,7,20,2023,11,29,21,786,-576,34,4442,-135,1008,361,
1110,7,20,2023,11,29,21,796,-106,-649,4473,-267,2009,383,
1111,7,20,2023,11,29,21,806,-926,-672,4355,-221,2980,620,
1112,7,20,2023,11,29,21,816,-1221,-265,4415,-251,3916,972,
1113,7,20,2023,11,29,21,826,-1149,-157,4430,-395,4885,1254,
1114,7,20,2023,11,29,21,836,-1190,-287,4334,-502,5856,1456,
1115,7,20,2023,11,29,21,846,-1366,-524,4231,-521,6764,1594,
1116,7,20,2023,11,29,21,856,-1774,-580,3927,-330,7580,1659,
1117,7,20,2023,11,29,21,866,-1758,-456,3939,-247,8450,1779,
1118,7,20,2023,11,29,21,876,-1815,-710,4107,-202,9446,1966,
1119,7,20,2023,11,29,21,886,-1751,-389,4365,13,10735,2133,
1120,7,20,2023,11,29,21,896,-1653,-289,4643,217,12259,2264,
1121,7,20,2023,11,29,21,906,-1460,-127,4694,612,13682,2361,
1122,7,20,2023,11,29,21,916,-1697,201,4392,1043,14705,2428,
1123,7,20,2023,11,29,21,926,-1295,316,2930,1375,15206,2411,
1124,7,20,2023,11,29,21,936,-649,174,1467,1438,15407,2210,
1125,7,20,2023,11,29,21,946,611,-286,1630,1179,15402,1726,
1126,7,20,2023,11,29,21,956,1882,-514,4392,704,14565,928,
1127,7,20,2023,11,29,21,966,2705,764,8970,-555,11717,-753,
1128,7,20,2023,11,29,21,976,-8791,-1073,14503,-3134,6435,-3083,
1129,7,20,2023,11,29,21,986,-3970,-4823,11277,-3484,-2447,-3986,
1130,7,20,2023,11,29,21,996,2180,-4319,4558,-618,-7961,-4154,
1131,7,20,2023,11,29,22,6,3724,-1927,899,2649,-8819,-3914,
1132,7,20,2023,11,29,22,16,3253,1031,124,4151,-7807,-3652,
1133,7,20,2023,11,29,22,26,1393,3228,1353,3439,-6734,-3359,
1134,7,20,2023,11,29,22,36,-91,3055,2236,1156,-6614,-2767,
1135,7,20,2023,11,29,22,46,-375,1447,2109,-787,-7010,-1982,
1136,7,20,2023,11,29,22,56,-360,383,1857,-1409,-7201,-1079,
1137,7,20,2023,11,29,22,66,-612,235,1846,-1260,-6954,-208,
1138,7,20,2023,11,29,22,76,-658,306,1382,-1135,-6510,520,
1139,7,20,2023,11,29,22,86,-401,144,1093,-1173,-5643,1122,
1140,7,20,2023,11,29,22,96,-784,52,1434,-1396,-4239,1475,
1141,7,20,2023,11,29,22,106,-1974,-186,2011,-1858,-2751,1597,
1142,7,20,2023,11,29,22,116,-3903,-180,2623,-2509,-1536,1486,
1143,7,20,2023,11,29,22,126,-6125,-596,2943,-3286,-874,1037,
1144,7,20,2023,11,29,22,136,-8252,-1124,3038,-3976,-752,351,
1145,7,20,2023,11,29,22,146,-10247,-1548,2915,-4430,-1075,-520,
1146,7,20,2023,11,29,22,156,-11732,-2030,2450,-4465,-1780,-1403,
1147,7,20,2023,11,29,22,166,-12256,-2357,1613,-3850,-2736,-2051,
1148,7,20,2023,11,29,22,176,-11580,-2190,623,-2639,-3679,-2372,
1149,7,20,2023,11,29,22,186,-10287,-1698,-524,-1161,-4374,-2443,
1150,7,20,2023,11,29,22,196,-8555,-1060,-2024,236,-4710,-2376,
1151,7,20,2023,11,29,22,206,-6874,-466,-3355,1237,-4330,-2373,
1152,7,20,2023,11,29,22,216,-5410,-117,-4336,1718,-3168,-2422,
1153,7,20,2023,11,29,22,226,-4949,129,-4937,1651,-1481,-2490,
1154,7,20,2023,11,29,22,236,-5652,48,-4671,1188,219,-2435,
1155,7,20,2023,11,29,22,246,-6514,343,-4110,465,1256,-2136,
1156,7,20,2023,11,29,22,256,-6994,960,-3899,-572,1470,-1809,
1157,7,20,2023,11,29,22,266,-6738,1767,-4247,-2051,1253,-1715,
1158,7,20,2023,11,29,22,276,-5816,1993,-4983,-3710,1210,-1875,
1159,7,20,2023,11,29,22,286,-4747,1298,-5495,-4846,1874,-1990,
1160,7,20,2023,11,29,22,296,-4173,656,-5599,-4969,3176,-1701,
1161,7,20,2023,11,29,22,306,-4052,-145,-5084,-4174,4766,-917,
1162,7,20,2023,11,29,22,316,-7464,-6230,-1104,-2197,6103,358,
1163,7,20,2023,11,29,22,326,-26337,-23718,20050,10951,3397,5490,
1164,7,20,2023,11,29,22,336,-8332,10897,4405,19668,-9770,822,
1165,7,20,2023,11,29,22,346,-5156,20832,7881,10323,-12862,127,
1166,7,20,2023,11,29,22,356,-2911,-9124,2088,-1580,-14719,2459,
1167,7,20,2023,11,29,22,366,140,-7178,4167,2616,-12766,1498,
1168,7,20,2023,11,29,22,376,1263,5623,7321,4656,-10790,1684,
1169,7,20,2023,11,29,22,386,-2751,-2524,3567,2123,-9661,2466,
1170,7,20,2023,11,29,22,396,-3078,2805,4661,3120,-7982,1706,
1171,7,20,2023,11,29,22,406,-1033,356,4554,2554,-6717,1367,
1172,7,20,2023,11,29,22,416,-837,731,4422,2298,-5330,1076,
1173,7,20,2023,11,29,22,426,-2270,1093,4374,1904,-3903,950,
1174,7,20,2023,11,29,22,436,-1543,1448,4363,1242,-2720,475,
1175,7,20,2023,11,29,22,446,-505,317,4146,527,-1587,18,
1176,7,20,2023,11,29,22,456,-919,195,4085,169,-538,-36,
1177,7,20,2023,11,29,22,466,-1720,770,3972,-112,240,-4,
1178,7,20,2023,11,29,22,476,-2015,640,3808,-429,654,-156,
1179,7,20,2023,11,29,22,486,-1950,204,3796,-661,856,-316,
1180,7,20,2023,11,29,22,496,-1982,-273,3747,-793,1008,-382,
1181,7,20,2023,11,29,22,506,-2192,-201,3677,-818,1069,-390,
1182,7,20,2023,11,29,22,516,-2299,-119,3607,-848,1041,-425,
1183,7,20,2023,11,29,22,526,-2181,-239,3536,-840,981,-475,
1184,7,20,2023,11,29,22,536,-2174,-245,3559,-771,939,-483,
1185,7,20,2023,11,29,22,546,-2185,-100,3590,-766,958,-509,
1186,7,20,2023,11,29,22,556,-2187,-33,3565,-827,1026,-586,
1187,7,20,2023,11,29,22,566,-2069,-177,3517,-893,1105,-651,
1188,7,20,2023,11,29,22,576,-1822,-250,3408,-963,1160,-658,
1189,7,20,2023,11,29,22,586,-1704,-338,3425,-1022,1206,-616,
1190,7,20,2023,11,29,22,596,-1780,-400,3411,-1029,1291,-584,
1191,7,20,2023,11,29,22,616,-1718,-841,3345,-834,1472,-374,
1192,7,20,2023,11,29,22,626,-1761,-804,3297,-644,1509,-204,
1193,7,20,2023,11,29,22,636,-1954,-828,3228,-450,1514,-24,
1194,7,20,2023,11,29,22,646,-2211,-876,3181,-257,1442,133,
1195,7,20,2023,11,29,22,656,-2435,-792,3145,-91,1286,259,
1196,7,20,2023,11,29,22,666,-2658,-679,3109,60,1060,349,
1197,7,20,2023,11,29,22,676,-2939,-500,3123,215,760,392,
1198,7,20,2023,11,29,22,686,-3179,-313,3076,355,369,372,
1199,7,20,2023,11,29,22,696,-2769,-417,2798,432,-96,313,
1200,7,20,2023,11,29,22,706,-1739,-931,2767,475,-537,316,
1201,7,20,2023,11,29,22,716,-1338,-1495,3072,639,-785,488,
1202,7,20,2023,11,29,22,726,-1845,-1195,3300,876,-764,787,
1203,7,20,2023,11,29,22,736,-2073,-664,3288,1087,-635,1073,
1204,7,20,2023,11,29,22,746,-2175,-338,3251,1268,-573,1258,
1205,7,20,2023,11,29,22,756,-2388,102,3335,1341,-561,1313,
1206,7,20,2023,11,29,22,766,-2549,704,3473,1219,-501,1164,
1207,7,20,2023,11,29,22,776,-2378,822,3547,913,-335,856,
1208,7,20,2023,11,29,22,786,-1941,571,3707,600,-42,545,
1209,7,20,2023,11,29,22,796,-1823,239,3721,381,333,368,
1210,7,20,2023,11,29,22,806,-1801,45,3696,244,709,325,
1211,7,20,2023,11,29,22,816,-1840,-74,3740,158,1105,363,
1212,7,20,2023,11,29,22,826,-1700,-152,3800,75,1537,456,
1213,7,20,2023,11,29,22,836,-1745,-200,3791,18,1999,564,
1214,7,20,2023,11,29,22,846,-1872,-133,3755,-51,2490,675,
1215,7,20,2023,11,29,22,856,-1941,-182,3560,-131,2946,767,
1216,7,20,2023,11,29,22,866,-1706,-197,3580,-196,3402,849,
1217,7,20,2023,11,29,22,876,-1600,-305,3564,-239,3909,968,
1218,7,20,2023,11,29,22,886,-2204,-153,3544,-218,4436,1084,
1219,7,20,2023,11,29,22,896,-2078,31,3820,-366,5162,1127,
1220,7,20,2023,11,29,22,906,-1332,-52,4222,-573,6243,1059,
1221,7,20,2023,11,29,22,916,-1152,-144,4471,-687,7655,936,
1222,7,20,2023,11,29,22,926,-1023,-235,4762,-736,9491,872,
1223,7,20,2023,11,29,22,936,-277,-705,5383,-744,11951,1004,
1224,7,20,2023,11,29,22,946,214,-1343,6000,-475,15061,1390,
1225,7,20,2023,11,29,22,956,175,-1459,6533,267,18331,2013,
1226,7,20,2023,11,29,22,966,1088,-895,6254,1234,21233,2783,
1227,7,20,2023,11,29,22,976,-1526,48,7192,1466,23560,3526,
1228,7,20,2023,11,29,22,986,-322,2617,7507,-1,22594,3203,
1229,7,20,2023,11,29,22,996,-3292,3800,11739,-5405,18571,682,
1230,7,20,2023,11,29,23,6,-17423,-8667,20141,-9764,10933,-204,
1231,7,20,2023,11,29,23,16,-5054,-14655,14402,-5873,-874,235,
1232,7,20,2023,11,29,23,26,2896,-9489,5648,1667,-6560,-805,
1233,7,20,2023,11,29,23,36,2836,-4272,2412,6831,-6399,-1214,
1234,7,20,2023,11,29,23,46,1259,-489,2316,7826,-5260,-1526,
1235,7,20,2023,11,29,23,56,-169,1404,3458,5876,-4989,-2121,
1236,7,20,2023,11,29,23,66,-565,1305,4018,2495,-5647,-2706,
1237,7,20,2023,11,29,23,76,-799,48,4048,-384,-6463,-2864,
1238,7,20,2023,11,29,23,86,-1167,-1453,3961,-1656,-7216,-2650,
1239,7,20,2023,11,29,23,96,-1623,-2094,4005,-1380,-7931,-2240,
1240,7,20,2023,11,29,23,106,-2279,-1735,4239,-446,-8597,-1750,
1241,7,20,2023,11,29,23,116,-2789,-916,4383,216,-9229,-1373,
1242,7,20,2023,11,29,23,126,-3143,-360,4555,139,-9749,-1210,
1243,7,20,2023,11,29,23,136,-3553,-314,4786,-442,-10169,-1181,
1244,7,20,2023,11,29,23,146,-3974,-575,4995,-1054,-10532,-1211,
1245,7,20,2023,11,29,23,156,-4470,-939,5344,-1439,-10854,-1256,
1246,7,20,2023,11,29,23,166,-5337,-1243,5869,-1578,-11140,-1328,
1247,7,20,2023,11,29,23,176,-6341,-1365,6123,-1544,-11553,-1514,
1248,7,20,2023,11,29,23,186,-7004,-1079,6119,-1389,-12055,-1916,
1249,7,20,2023,11,29,23,196,-7667,-325,6220,-1375,-12393,-2401,
1250,7,20,2023,11,29,23,206,-8335,205,6146,-1680,-12621,-2857,
1251,7,20,2023,11,29,23,216,-8718,624,6054,-2023,-12679,-3242,
1252,7,20,2023,11,29,23,226,-9192,968,6112,-2274,-12528,-3480,
1253,7,20,2023,11,29,23,236,-9725,882,6086,-2374,-12279,-3548,
1254,7,20,2023,11,29,23,246,-10165,196,5620,-2216,-12102,-3371,
1255,7,20,2023,11,29,23,256,-10855,-924,4514,-1448,-11983,-2903,
1256,7,20,2023,11,29,23,266,-10885,-1707,2840,-68,-11795,-2163,
1257,7,20,2023,11,29,23,276,-10913,-2248,786,1274,-11349,-1413,
1258,7,20,2023,11,29,23,286,-11195,-2002,-1271,2116,-10419,-663,
1259,7,20,2023,11,29,23,296,-11065,-106,-3122,1707,-9025,-211,
1260,7,20,2023,11,29,23,306,-10879,2266,-4625,-589,-7173,-557,
1261,7,20,2023,11,29,23,316,-10568,3080,-5686,-4078,-4984,-1620,
1262,7,20,2023,11,29,23,326,-10481,1777,-5744,-6701,-2564,-2725,
1263,7,20,2023,11,29,23,336,-10512,-518,-4788,-6625,-308,-3370,
1264,7,20,2023,11,29,23,346,-9510,-2313,-3549,-3759,1367,-3335,
1265,7,20,2023,11,29,23,356,-8022,-1891,-2322,444,2557,-2808,
1266,7,20,2023,11,29,23,366,-7282,-286,-984,3598,3474,-2349,
1267,7,20,2023,11,29,23,376,-7049,341,122,4635,4147,-2379,
1268,7,20,2023,11,29,23,386,5957,-30,7373,3860,4847,-2524,
1269,7,20,2023,11,29,23,396,3812,-10472,13333,2501,5217,-2888,
1270,7,20,2023,11,29,23,406,9933,-4651,-542,3976,2984,-2199,
1271,7,20,2023,11,29,23,416,4866,6634,-3361,4498,6724,-162,
1272,7,20,2023,11,29,23,426,-5788,7330,5197,2688,10906,-471,
1273,7,20,2023,11,29,23,436,-9011,7208,8283,1785,9729,414,
1274,7,20,2023,11,29,23,446,-5112,5012,6894,1542,7300,2552,
1275,7,20,2023,11,29,23,456,-6616,-2271,7421,1507,6436,3243,
1276,7,20,2023,11,29,23,476,-9018,-1812,6008,3273,2840,1792,
1277,7,20,2023,11,29,23,486,-4979,5699,7071,2191,1082,1295,
1278,7,20,2023,11,29,23,496,-1766,1695,4690,556,169,527,
1279,7,20,2023,11,29,23,506,-2136,-2715,3634,-109,371,70,
1280,7,20,2023,11,29,23,516,-2125,-689,3662,-115,318,46,
1281,7,20,2023,11,29,23,526,-1911,-786,3637,28,85,106,
1282,7,20,2023,11,29,23,536,-2202,-1433,3628,194,-59,122,
1283,7,20,2023,11,29,23,546,-1930,-651,3710,302,-129,175,
1284,7,20,2023,11,29,23,556,-1723,-577,3617,323,-170,191,
1285,7,20,2023,11,29,23,566,-1586,-617,3632,322,-185,198,
1286,7,20,2023,11,29,23,576,-1437,-270,3726,337,-136,225,
1287,7,20,2023,11,29,23,586,-1527,22,3874,277,-32,221,
1288,7,20,2023,11,29,23,596,-1725,167,3950,137,110,136,
1289,7,20,2023,11,29,23,606,-1779,263,3945,-69,230,18,
1290,7,20,2023,11,29,23,616,-1649,-93,3819,-261,326,-89,
1291,7,20,2023,11,29,23,626,-1512,-343,3646,-340,424,-131,
1292,7,20,2023,11,29,23,636,-1544,-529,3580,-220,525,-64,
1293,7,20,2023,11,29,23,646,-1753,-621,3576,-58,584,33,
1294,7,20,2023,11,29,23,656,-1736,-622,3562,34,559,96,
1295,7,20,2023,11,29,23,666,-1615,-692,3558,94,506,144,
1296,7,20,2023,11,29,23,676,-1578,-625,3582,153,466,196,
1297,7,20,2023,11,29,23,686,-1795,-417,3680,186,445,224,
1298,7,20,2023,11,29,23,696,-1873,-286,3673,155,403,213,
1299,7,20,2023,11,29,23,706,-1891,-297,3702,108,361,190,
1300,7,20,2023,11,29,23,716,-1900,-304,3678,74,322,163,
1301,7,20,2023,11,29,23,726,-1895,-320,3658,78,287,148,
1302,7,20,2023,11,29,23,736,-1891,-371,3640,95,270,137,
1303,7,20,2023,11,29,23,746,-1888,-362,3634,86,262,117,
1304,7,20,2023,11,29,23,756,-1859,-283,3631,49,267,73,
1305,7,20,2023,11,29,23,766,-1824,-290,3635,12,275,41,
1306,7,20,2023,11,29,23,776,-1821,-322,3648,-14,284,21,
1307,7,20,2023,11,29,23,786,-1861,-358,3659,-41,298,4,
1308,7,20,2023,11,29,23,796,-1899,-372,3644,-91,296,-22,
1309,7,20,2023,11,29,23,806,-1892,-300,3628,-152,270,-53,
1310,7,20,2023,11,29,23,816,-1810,-209,3564,-224,253,-78,
1311,7,20,2023,11,29,23,826,-1742,-286,3553,-200,285,-75,
1312,7,20,2023,11,29,23,836,-1789,-447,3561,-155,338,-49,
1313,7,20,2023,11,29,23,846,-1808,-471,3560,-130,360,-14,
1314,7,20,2023,11,29,23,856,-1855,-474,3579,-94,363,20,
1315,7,20,2023,11,29,23,866,-1908,-431,3568,-49,349,40,
1316,7,20,2023,11,29,23,876,-1931,-332,3584,-28,329,46,
1317,7,20,2023,11,29,23,886,-1950,-157,3620,-63,329,19,
1318,7,20,2023,11,29,23,896,-1870,-246,3589,-139,362,-33,
1319,7,20,2023,11,29,23,906,-1739,-392,3544,-171,420,-60,
1320,7,20,2023,11,29,23,916,-1684,-614,3533,-142,490,-15,
1321,7,20,2023,11,29,23,926,-1778,-626,3553,-80,564,60,
1322,7,20,2023,11,29,23,936,-1846,-445,3551,-49,626,114,
1323,7,20,2023,11,29,23,946,-1845,-394,3574,-91,699,118,
1324,7,20,2023,11,29,23,956,-1868,-358,3648,-145,801,111,
1325,7,20,2023,11,29,23,966,-1835,-338,3667,-179,923,97,
1326,7,20,2023,11,29,23,976,-1834,-319,3670,-210,1098,82,
1327,7,20,2023,11,29,23,986,-1858,-392,3668,-212,1310,92,
1328,7,20,2023,11,29,23,996,-1788,-453,3718,-216,1565,121,
1329,7,20,2023,11,29,24,6,-1807,-390,3802,-297,1903,159,
1330,7,20,2023,11,29,24,16,-1895,-330,3817,-432,2324,146,
1331,7,20,2023,11,29,24,26,-1827,-528,3763,-580,2797,122,
1332,7,20,2023,11,29,24,36,-1745,-554,3817,-642,3363,98,
1333,7,20,2023,11,29,24,46,-1768,-641,3873,-768,4070,103,
1334,7,20,2023,11,29,24,56,-1669,-523,3922,-775,4902,76,
1335,7,20,2023,11,29,24,66,-1383,-635,3902,-827,5936,51,
1336,7,20,2023,11,29,24,76,-1112,-623,3773,-807,7196,69,
1337,7,20,2023,11,29,24,86,-1133,-389,3715,-844,8662,177,
1338,7,20,2023,11,29,24,96,-1533,-376,3638,-949,10211,241,
1339,7,20,2023,11,29,24,106,-1908,-437,3691,-1068,11790,276,
1340,7,20,2023,11,29,24,116,-2388,-630,3754,-1340,13264,404,
1341,7,20,2023,11,29,24,126,-3428,-996,4030,-1712,14453,571,
1342,7,20,2023,11,29,24,136,-4827,-1250,4559,-2067,15246,736,
1343,7,20,2023,11,29,24,146,-6291,-928,5537,-2440,15510,870,
1344,7,20,2023,11,29,24,156,-6626,-1355,5824,-2945,15157,1053,
1345,7,20,2023,11,29,24,166,-7388,-1526,6765,-3179,14475,1321,
1346,7,20,2023,11,29,24,176,-6403,-1985,5832,-2478,13258,2194,
1347,7,20,2023,11,29,24,186,-4815,-1009,4565,-1226,12472,2875,
1348,7,20,2023,11,29,24,196,-3614,-1620,4266,-585,12434,3159,
1349,7,20,2023,11,29,24,206,-4028,-1772,5175,-161,12361,3169,
1350,7,20,2023,11,29,24,216,-3614,-1120,3882,-307,11664,2884,
1351,7,20,2023,11,29,24,226,-1607,-144,2833,-1000,10856,2520,
1352,7,20,2023,11,29,24,236,-10673,1495,9508,-2604,9403,2336,
1353,7,20,2023,11,29,24,246,-10877,-1499,12152,-4069,3956,1782,
1354,7,20,2023,11,29,24,256,-3457,-3398,7044,-3996,-1744,1525,
1355,7,20,2023,11,29,24,266,-1902,-3129,4744,-3018,-4230,1408,
1356,7,20,2023,11,29,24,276,-1036,-2646,3250,-1562,-5370,1213,
1357,7,20,2023,11,29,24,286,-194,-1975,2211,-496,-5666,1115,
1358,7,20,2023,11,29,24,296,-32,-1523,1864,14,-5490,847,
1359,7,20,2023,11,29,24,306,-457,-1207,2082,71,-5271,400,
1360,7,20,2023,11,29,24,316,-1009,-1117,2496,-27,-5319,-67,
1361,7,20,2023,11,29,24,336,-1699,-1340,3112,-229,-6288,-877,
1362,7,20,2023,11,29,24,346,-1996,-1399,3268,-78,-7027,-1159,
1363,7,20,2023,11,29,24,356,-2024,-1344,3193,281,-7848,-1355,
1364,7,20,2023,11,29,24,366,-1937,-1151,2947,706,-8574,-1534,
1365,7,20,2023,11,29,24,376,-1952,-900,2719,1025,-9056,-1734,
1366,7,20,2023,11,29,24,386,-2126,-643,2619,1179,-9297,-1992,
1367,7,20,2023,11,29,24,396,-2371,-495,2631,1209,-9412,-2257,
1368,7,20,2023,11,29,24,406,-2675,-478,2773,1175,-9493,-2471,
1369,7,20,2023,11,29,24,416,-3006,-530,2972,1183,-9572,-2589,
1370,7,20,2023,11,29,24,426,-3319,-526,3225,1277,-9681,-2609,
1371,7,20,2023,11,29,24,436,-3673,-449,3533,1345,-9812,-2558,
1372,7,20,2023,11,29,24,446,-4054,-371,3868,1334,-9972,-2474,
1373,7,20,2023,11,29,24,456,-4409,-304,4177,1206,-10137,-2403,
1374,7,20,2023,11,29,24,466,-4801,-205,4415,987,-10295,-2355,
1375,7,20,2023,11,29,24,476,-5334,21,4730,674,-10399,-2340,
1376,7,20,2023,11,29,24,486,-6186,201,5019,164,-10505,-2347,
1377,7,20,2023,11,29,24,496,-7193,145,5122,-448,-10694,-2436,
1378,7,20,2023,11,29,24,506,-8115,8,5014,-915,-10938,-2563,
1379,7,20,2023,11,29,24,516,-8789,-135,4736,-1123,-11121,-2621,
1380,7,20,2023,11,29,24,526,-9159,-337,4370,-1099,-11119,-2525,
1381,7,20,2023,11,29,24,536,-9281,-355,3850,-877,-10899,-2226,
1382,7,20,2023,11,29,24,546,-9420,-422,3164,-639,-10576,-1836,
1383,7,20,2023,11,29,24,556,-9676,-717,2207,-470,-10262,-1461,
1384,7,20,2023,11,29,24,566,-9363,-1331,978,-197,-9978,-981,
1385,7,20,2023,11,29,24,576,-9343,-1582,-239,246,-9487,-412,
1386,7,20,2023,11,29,24,586,-9575,-1275,-1303,601,-8777,272,
1387,7,20,2023,11,29,24,596,-9787,12,-2572,267,-7939,811,
1388,7,20,2023,11,29,24,606,-9978,1334,-4139,-1165,-6885,883,
1389,7,20,2023,11,29,24,616,-10073,1791,-5906,-3346,-5455,359,
1390,7,20,2023,11,29,24,626,-9174,620,-7250,-5062,-3516,-501,
1391,7,20,2023,11,29,24,636,-8221,-4026,-9235,-3817,-768,-1276,
1392,7,20,2023,11,29,24,646,-5727,-1033,-9833,1562,3690,-472,
1393,7,20,2023,11,29,24,656,-220,776,2503,3276,7890,944,
1394,7,20,2023,11,29,24,666,-1888,-3265,11786,2662,7526,281,
1395,7,20,2023,11,29,24,676,176,-62,5336,2425,4977,619,
1396,7,20,2023,11,29,24,686,-1012,3073,938,2059,5348,999,
1397,7,20,2023,11,29,24,696,-4634,2730,5250,1720,6868,1308,
1398,7,20,2023,11,29,24,706,-8003,2447,8516,1665,6188,1914,
1399,7,20,2023,11,29,24,716,-7047,-560,6920,1623,4109,1933,
1400,7,20,2023,11,29,24,726,-6094,-3059,4982,2130,2983,1710,
1401,7,20,2023,11,29,24,736,-6145,-1092,5555,2587,2341,1382,
1402,7,20,2023,11,29,24,746,-3816,2295,5377,2150,1189,1181,
1403,7,20,2023,11,29,24,756,-1240,613,4509,1419,571,917,
1404,7,20,2023,11,29,24,766,-1648,-1147,3954,935,690,753,
1405,7,20,2023,11,29,24,776,-2341,-641,3876,820,705,742,
1406,7,20,2023,11,29,24,786,-2250,-686,3687,826,513,679,
1407,7,20,2023,11,29,24,796,-2051,-643,3754,806,343,591,
1408,7,20,2023,11,29,24,806,-2081,-22,3904,734,227,520,
1409,7,20,2023,11,29,24,816,-2265,23,3971,577,145,436,
1410,7,20,2023,11,29,24,826,-1956,-69,3765,407,67,336,
1411,7,20,2023,11,29,24,836,-1718,-90,3819,278,83,277,
1412,7,20,2023,11,29,24,846,-1942,29,3845,151,117,208,
1413,7,20,2023,11,29,24,856,-1850,-54,3824,33,157,133,
1414,7,20,2023,11,29,24,866,-1868,-73,3816,-76,211,69,
1415,7,20,2023,11,29,24,876,-1930,-113,3798,-175,245,13,
1416,7,20,2023,11,29,24,886,-1933,-217,3752,-236,255,-16,
1417,7,20,2023,11,29,24,896,-1964,-328,3709,-244,254,-29,
1418,7,20,2023,11,29,24,906,-1944,-384,3668,-214,236,-28,
1419,7,20,2023,11,29,24,916,-1868,-394,3658,-179,200,-28,
1420,7,20,2023,11,29,24,926,-1814,-428,3664,-152,162,-23,
1421,7,20,2023,11,29,24,936,-1805,-358,3657,-124,138,-9,
1422,7,20,2023,11,29,24,946,-1830,-286,3653,-86,124,9,
1423,7,20,2023,11,29,24,956,-1844,-299,3655,-24,104,27,
1424,7,20,2023,11,29,24,966,-1895,-264,3646,37,83,49,
1425,7,20,2023,11,29,24,976,-1969,-184,3673,82,49,57,
1426,7,20,2023,11,29,24,986,-1989,-122,3673,96,10,32,
1427,7,20,2023,11,29,24,996,-1897,-131,3648,84,-26,1,
1428,7,20,2023,11,29,25,6,-1732,-239,3584,80,-50,-16,
1429,7,20,2023,11,29,25,16,-1343,-572,3554,88,-69,14,
1430,7,20,2023,11,29,25,26,-1464,-618,3593,132,-61,86,
1431,7,20,2023,11,29,25,36,-1646,-364,3589,216,-66,176,
1432,7,20,2023,11,29,25,46,-1640,-353,3611,233,-92,224,
1433,7,20,2023,11,29,25,56,-1700,-361,3640,240,-110,253,
1434,7,20,2023,11,29,25,66,-1704,-284,3670,226,-94,258,
1435,7,20,2023,11,29,25,76,-1712,-118,3684,157,-18,220,
1436,7,20,2023,11,29,25,86,-1695,-205,3697,95,64,188,
1437,7,20,2023,11,29,25,96,-1694,-189,3694,79,136,191,
1438,7,20,2023,11,29,25,106,-1672,-194,3692,75,215,200,
1439,7,20,2023,11,29,25,116,-1671,-284,3666,72,297,218,
1440,7,20,2023,11,29,25,126,-1502,-430,3615,82,377,258,
1441,7,20,2023,11,29,25,136,-1430,-493,3684,110,453,337,
1442,7,20,2023,11,29,25,146,-1654,-361,3672,157,549,418,
1443,7,20,2023,11,29,25,156,-1756,-208,3645,199,641,491,
1444,7,20,2023,11,29,25,166,-1817,-111,3653,224,681,528,
1445,7,20,2023,11,29,25,176,-1994,-60,3588,229,638,525,
1446,7,20,2023,11,29,25,196,-2287,249,3537,187,382,404,
1447,7,20,2023,11,29,25,206,-2280,164,3582,123,247,264,
1448,7,20,2023,11,29,25,216,-2097,-113,3540,53,147,124,
1449,7,20,2023,11,29,25,226,-1812,-290,3453,22,78,63,
1450,7,20,2023,11,29,25,236,-1463,-375,3633,23,86,80,
1451,7,20,2023,11,29,25,246,-1396,-356,3726,20,267,144,
1452,7,20,2023,11,29,25,256,-1563,-282,3725,10,517,231,
1453,7,20,2023,11,29,25,266,-1662,-149,3727,-8,747,315,
1454,7,20,2023,11,29,25,276,-1805,-10,3681,-33,925,359,
1455,7,20,2023,11,29,25,286,-1937,142,3632,-78,1054,349,
1456,7,20,2023,11,29,25,296,-2106,291,3626,-156,1177,258,
1457,7,20,2023,11,29,25,306,-1980,248,3741,-300,1362,122,
1458,7,20,2023,11,29,25,316,-1629,20,3897,-434,1679,13,
1459,7,20,2023,11,29,25,326,-1680,-183,3793,-502,2023,26,
1460,7,20,2023,11,29,25,336,-2014,-241,3476,-477,2163,97,
1461,7,20,2023,11,29,25,346,-2556,-242,3034,-405,1985,161,
1462,7,20,2023,11,29,25,356,-2860,-375,2804,-323,1534,167,
1463,7,20,2023,11,29,25,366,-2337,-421,3182,-206,1139,141,
1464,7,20,2023,11,29,25,376,-2044,-505,3466,-112,1054,178,
1465,7,20,2023,11,29,25,386,-1747,-460,3772,-63,1288,268,
1466,7,20,2023,11,29,25,396,-1429,-487,4029,-74,1902,384,
1467,7,20,2023,11,29,25,406,-1245,-390,4293,-131,2911,552,
1468,7,20,2023,11,29,25,416,-843,-371,4530,-278,4303,766,
1469,7,20,2023,11,29,25,426,-1113,-407,4462,-344,5851,888,
1470,7,20,2023,11,29,25,436,-1452,-74,4375,-343,7655,867,
1471,7,20,2023,11,29,25,446,-1178,-305,4571,-472,10021,893,
1472,7,20,2023,11,29,25,456,-538,-658,4776,-547,12902,1126,
1473,7,20,2023,11,29,25,466,-1089,-1289,4643,-584,16054,1679,
1474,7,20,2023,11,29,25,476,-1871,-1377,4971,-173,18753,2447,
1475,7,20,2023,11,29,25,486,-3603,-1126,5827,287,20159,3138,
1476,7,20,2023,11,29,25,496,-8906,-432,7049,322,19832,3175,
1477,7,20,2023,11,29,25,506,-11397,1278,7418,-413,16980,2418,
1478,7,20,2023,11,29,25,516,-12065,-30,5698,-1231,12469,2113,
1479,7,20,2023,11,29,25,526,-9191,-868,4861,-1387,8002,2083,
1480,7,20,2023,11,29,25,536,-4552,-1438,2945,-1215,4270,1981,
1481,7,20,2023,11,29,25,546,3601,-1424,-1605,-470,2222,1665,
1482,7,20,2023,11,29,25,556,1890,580,7392,574,2670,2044,
1483,7,20,2023,11,29,25,566,-1632,-1381,7476,-794,-1135,2256,
1484,7,20,2023,11,29,25,576,8095,-5274,-1869,-903,-4205,1199,
1485,7,20,2023,11,29,25,586,4654,-3428,69,21,-1925,-86,
1486,7,20,2023,11,29,25,596,1568,-1930,3105,225,-1533,-1261,
1487,7,20,2023,11,29,25,606,2173,-1974,3018,-614,-3274,-2497,
1488,7,20,2023,11,29,25,616,3151,-1777,1885,-1155,-4591,-3514,
1489,7,20,2023,11,29,25,626,3143,-1110,1295,-1228,-4916,-4219,
1490,7,20,2023,11,29,25,636,2351,-287,1507,-1214,-4907,-4535,
1491,7,20,2023,11,29,25,646,1769,171,1658,-1231,-4996,-4461,
1492,7,20,2023,11,29,25,656,1225,297,1706,-1170,-5029,-4015,
1493,7,20,2023,11,29,25,666,729,296,1720,-852,-4983,-3262,
1494,7,20,2023,11,29,25,676,233,437,1831,-298,-4854,-2285,
1495,7,20,2023,11,29,25,686,-353,731,2042,184,-4676,-1208,
1496,7,20,2023,11,29,25,696,-984,748,2170,321,-4494,-225,
1497,7,20,2023,11,29,25,706,-1482,458,2198,173,-4227,452,
1498,7,20,2023,11,29,25,716,-1901,230,2215,-124,-3817,763,
1499,7,20,2023,11,29,25,726,-2296,266,2282,-540,-3273,743,
1500,7,20,2023,11,29,25,736,-2693,372,2359,-1110,-2672,508,
1501,7,20,2023,11,29,25,746,-3369,503,2439,-1827,-2037,203,
1502,7,20,2023,11,29,25,756,-4483,418,2483,-2543,-1395,-134,
1503,7,20,2023,11,29,25,766,-5824,189,2257,-3173,-935,-521,
1504,7,20,2023,11,29,25,776,-7269,-66,2059,-3605,-674,-994,
1505,7,20,2023,11,29,25,786,-8776,-647,1820,-3725,-673,-1491,
1506,7,20,2023,11,29,25,796,-10222,-1101,1446,-3474,-934,-1955,
1507,7,20,2023,11,29,25,806,-11243,-1306,784,-2759,-1487,-2205,
1508,7,20,2023,11,29,25,816,-11502,-999,-118,-1685,-2221,-2225,
1509,7,20,2023,11,29,25,826,-11065,-128,-1102,-634,-2972,-2115,
1510,7,20,2023,11,29,25,836,-9850,808,-2014,58,-3536,-1901,
1511,7,20,2023,11,29,25,846,-7731,1667,-3092,385,-3695,-1498,
1512,7,20,2023,11,29,25,856,-5932,2067,-3992,260,-3056,-1070,
1513,7,20,2023,11,29,25,866,-5244,1514,-4204,-177,-1583,-752,
1514,7,20,2023,11,29,25,876,-5157,272,-4092,-506,75,-620,
1515,7,20,2023,11,29,25,886,-5903,-934,-3537,-465,1497,-748,
1516,7,20,2023,11,29,25,896,-6680,-1824,-2783,25,2215,-1080,
1517,7,20,2023,11,29,25,906,-6811,-2003,-2262,823,2164,-1526,
1518,7,20,2023,11,29,25,916,-6120,-1417,-2032,1698,1703,-1937,
1519,7,20,2023,11,29,25,926,-4972,-234,-1869,2224,1388,-2161,
1520,7,20,2023,11,29,25,936,-4086,1150,-1521,2164,1603,-2105,
1521,7,20,2023,11,29,25,946,-3758,2004,-982,1537,2216,-1811,
1522,7,20,2023,11,29,25,956,-3681,1869,-633,721,2837,-1269,
1523,7,20,2023,11,29,25,966,-10482,-2361,2778,1051,3370,143,
1524,7,20,2023,11,29,25,976,-22052,-7327,13278,6562,40,2472,
1525,7,20,2023,11,29,25,986,-11715,5608,803,6586,-9861,-507,
1526,7,20,2023,11,29,25,996,-5956,117,-572,2361,-13496,-13,
1527,7,20,2023,11,29,26,6,-1296,-6553,5201,1998,-13522,716,
1528,7,20,2023,11,29,26,16,2816,1179,8615,3807,-12357,638,
1529,7,20,2023,11,29,26,26,718,-715,5604,1562,-11414,1212,
1530,7,20,2023,11,29,26,36,-3262,-3226,3010,1100,-10064,1468,
1531,7,20,2023,11,29,26,56,288,389,4904,2710,-7484,1496,
1532,7,20,2023,11,29,26,66,-2068,814,4230,2448,-5808,856,
1533,7,20,2023,11,29,26,76,-1120,1221,4340,1725,-4415,591,
1534,7,20,2023,11,29,26,86,-1674,1032,4254,980,-3022,365,
1535,7,20,2023,11,29,26,96,-1591,481,4264,586,-1889,156,
1536,7,20,2023,11,29,26,106,-1503,189,4192,324,-957,103,
1537,7,20,2023,11,29,26,116,-1746,-71,3996,106,-231,87,
1538,7,20,2023,11,29,26,126,-1817,-403,3824,-7,193,69,
1539,7,20,2023,11,29,26,136,-1932,-712,3654,23,365,117,
1540,7,20,2023,11,29,26,146,-2144,-835,3511,173,345,227,
1541,7,20,2023,11,29,26,156,-2149,-811,3419,375,187,354,
1542,7,20,2023,11,29,26,166,-2058,-710,3424,564,-7,465,
1543,7,20,2023,11,29,26,176,-2009,-484,3454,667,-148,552,
1544,7,20,2023,11,29,26,186,-1880,-246,3507,682,-226,585,
1545,7,20,2023,11,29,26,196,-1912,229,3600,625,-225,537,
1546,7,20,2023,11,29,26,206,-1938,375,3640,461,-135,402,
1547,7,20,2023,11,29,26,216,-1822,249,3659,255,-5,221,
1548,7,20,2023,11,29,26,226,-1837,228,3677,59,123,95,
1549,7,20,2023,11,29,26,236,-1890,118,3695,-85,250,5,
1550,7,20,2023,11,29,26,246,-1829,-124,3710,-169,359,-60,
1551,7,20,2023,11,29,26,256,-1825,-356,3564,-175,420,-48,
1552,7,20,2023,11,29,26,266,-1700,-616,3401,-128,404,20,
1553,7,20,2023,11,29,26,276,-1620,-663,3433,-36,338,133,
1554,7,20,2023,11,29,26,286,-1805,-418,3441,30,314,243,
1555,7,20,2023,11,29,26,296,-1914,-245,3452,25,336,284,
1556,7,20,2023,11,29,26,306,-1892,-159,3510,3,377,280,
1557,7,20,2023,11,29,26,316,-1832,-94,3571,-19,453,257,
1558,7,20,2023,11,29,26,326,-1837,-107,3609,-40,535,223,
1559,7,20,2023,11,29,26,336,-1853,-180,3615,-48,615,215,
1560,7,20,2023,11,29,26,346,-2020,-41,3543,-40,665,245,
1561,7,20,2023,11,29,26,356,-2220,174,3469,-52,653,213,
1562,7,20,2023,11,29,26,366,-2176,140,3387,-116,608,112,
1563,7,20,2023,11,29,26,376,-1889,-71,3451,-188,579,21,
1564,7,20,2023,11,29,26,386,-1917,-232,3485,-212,634,9,
1565,7,20,2023,11,29,26,396,-1745,-247,3638,-216,795,42,
1566,7,20,2023,11,29,26,406,-1505,-165,3808,-251,1088,94,
1567,7,20,2023,11,29,26,416,-1988,-141,3684,-298,1380,115,
1568,7,20,2023,11,29,26,426,-2201,-168,3649,-356,1607,112,
1569,7,20,2023,11,29,26,436,-2020,-192,3787,-435,1890,117,
1570,7,20,2023,11,29,26,446,-1760,-128,3985,-550,2340,132,
1571,7,20,2023,11,29,26,456,-1658,-261,3879,-626,2864,134,
1572,7,20,2023,11,29,26,466,-2168,-306,3369,-573,3223,126,
1573,7,20,2023,11,29,26,476,-2397,-382,3120,-568,3360,138,
1574,7,20,2023,11,29,26,486,-2355,-517,3222,-550,3448,175,
1575,7,20,2023,11,29,26,496,-2040,-549,3519,-525,3761,262,
1576,7,20,2023,11,29,26,506,-1738,-694,3837,-510,4364,402,
1577,7,20,2023,11,29,26,516,-1873,-587,3989,-427,5225,526,
1578,7,20,2023,11,29,26,526,-1666,-482,4224,-426,6442,630,
1579,7,20,2023,11,29,26,536,-1489,-556,4360,-364,7947,649,
1580,7,20,2023,11,29,26,546,-1518,-654,4529,-226,9731,690,
1581,7,20,2023,11,29,26,556,-1676,-872,4404,18,11660,860,
1582,7,20,2023,11,29,26,566,-2254,-861,4692,430,13633,1184,
1583,7,20,2023,11,29,26,576,-2964,-941,5037,812,15143,1577,
1584,7,20,2023,11,29,26,586,-4155,-761,5278,1124,15758,1811,
1585,7,20,2023,11,29,26,596,-5071,-587,5339,1192,15349,1970,
1586,7,20,2023,11,29,26,606,-5054,-762,5089,1291,14041,2165,
1587,7,20,2023,11,29,26,616,-3492,-1456,4853,1542,12396,2411,
1588,7,20,2023,11,29,26,626,-712,-2175,4033,2313,10703,2616,
1589,7,20,2023,11,29,26,636,1848,-894,3365,3306,9076,1994,
1590,7,20,2023,11,29,26,646,8467,3422,7836,2889,7208,1344,
1591,7,20,2023,11,29,26,656,2481,4563,11977,-226,3909,1676,
1592,7,20,2023,11,29,26,666,-2869,-441,12576,-2631,-1854,1977,
1593,7,20,2023,11,29,26,676,4963,-3453,5513,-2718,-7683,1543,
1594,7,20,2023,11,29,26,686,5263,-3615,2199,-1166,-8704,1115,
1595,7,20,2023,11,29,26,696,3862,-2223,1925,312,-7897,303,
1596,7,20,2023,11,29,26,706,1745,-851,2984,507,-7336,-711,
1597,7,20,2023,11,29,26,716,665,-178,3143,-270,-7635,-1774,
1598,7,20,2023,11,29,26,726,867,-38,2255,-1140,-8075,-2661,
1599,7,20,2023,11,29,26,736,508,380,1742,-1559,-7797,-3123,
1600,7,20,2023,11,29,26,746,7,739,1012,-1557,-7128,-2958,
1601,7,20,2023,11,29,26,756,359,731,247,-1100,-6093,-2148,
1602,7,20,2023,11,29,26,766,-79,1094,547,-472,-4375,-1025,
1603,7,20,2023,11,29,26,776,-1978,1541,1435,-284,-2557,40,
1604,7,20,2023,11,29,26,786,-4578,1274,2305,-830,-1223,565,
1605,7,20,2023,11,29,26,796,-6926,550,2535,-1772,-671,478,
1606,7,20,2023,11,29,26,806,-9102,-578,2322,-2779,-760,-103,
1607,7,20,2023,11,29,26,816,-10836,-1834,1737,-3387,-1300,-1055,
1608,7,20,2023,11,29,26,826,-12020,-2515,993,-3323,-2012,-2109,
1609,7,20,2023,11,29,26,836,-12717,-2719,-47,-2724,-2784,-3105,
1610,7,20,2023,11,29,26,846,-12778,-2326,-1439,-1656,-3428,-3879,
1611,7,20,2023,11,29,26,856,-12489,-1125,-3049,-574,-3832,-4331,
1612,7,20,2023,11,29,26,866,-11780,356,-4474,9,-3846,-4384,
1613,7,20,2023,11,29,26,876,-9773,1848,-5590,-65,-3449,-3908,
1614,7,20,2023,11,29,26,886,-7070,2923,-6725,-1057,-2537,-3264,
1615,7,20,2023,11,29,26,896,-6362,2405,-6999,-2814,-736,-2833,
1616,7,20,2023,11,29,26,916,-7784,-698,-5713,-4766,2444,-1920,
1617,7,20,2023,11,29,26,926,-8452,-1898,-4832,-4320,2474,-1730,
1618,7,20,2023,11,29,26,936,-7459,-1883,-4845,-3050,1513,-1740,
1619,7,20,2023,11,29,26,946,-8428,-1129,-4993,-1632,930,-1586,
1620,7,20,2023,11,29,26,956,-16143,-8164,6623,3779,381,2420,
1621,7,20,2023,11,29,26,966,-14612,-263,5350,8954,-6416,1444,
1622,7,20,2023,11,29,26,976,-7106,5839,3729,6576,-11200,-33,
1623,7,20,2023,11,29,26,986,-2251,-4347,5348,2110,-12865,1287,
1624,7,20,2023,11,29,26,996,2165,-5710,7145,2904,-12422,1885,
1625,7,20,2023,11,29,27,6,1894,1680,7255,3642,-11038,2325,
1626,7,20,2023,11,29,27,16,-2844,-1333,3612,2103,-9918,2834,
1627,7,20,2023,11,29,27,26,-3365,299,3673,2781,-8832,2304,
1628,7,20,2023,11,29,27,36,-220,862,4884,3019,-7695,1985,
1629,7,20,2023,11,29,27,46,-1629,887,4284,2717,-6220,1455,
1630,7,20,2023,11,29,27,56,-1647,1475,4184,2173,-4737,1062,
1631,7,20,2023,11,29,27,66,-1536,1461,4304,1370,-3293,744,
1632,7,20,2023,11,29,27,76,-1707,522,4144,774,-2095,396,
1633,7,20,2023,11,29,27,86,-1713,-53,4023,454,-1213,261,
1634,7,20,2023,11,29,27,96,-1824,-226,3866,318,-644,282,
1635,7,20,2023,11,29,27,106,-1946,-285,3773,287,-311,305,
1636,7,20,2023,11,29,27,116,-1976,-334,3710,277,-115,309,
1637,7,20,2023,11,29,27,126,-2008,-537,3604,296,-36,333,
1638,7,20,2023,11,29,27,136,-2106,-676,3473,413,-90,414,
1639,7,20,2023,11,29,27,146,-2167,-607,3449,590,-229,536,
1640,7,20,2023,11,29,27,156,-2182,-286,3506,721,-351,630,
1641,7,20,2023,11,29,27,166,-2115,55,3559,764,-417,628,
1642,7,20,2023,11,29,27,176,-2056,425,3687,731,-391,548,
1643,7,20,2023,11,29,27,186,-2082,698,3738,542,-289,402,
1644,7,20,2023,11,29,27,196,-2066,598,3736,295,-166,207,
1645,7,20,2023,11,29,27,206,-2035,331,3719,100,-70,27,
1646,7,20,2023,11,29,27,216,-2077,158,3638,-29,-5,-88,
1647,7,20,2023,11,29,27,226,-2003,119,3502,-113,6,-167,
1648,7,20,2023,11,29,27,236,-1553,-108,3439,-185,-36,-226,
1649,7,20,2023,11,29,27,246,-1100,-564,3506,-177,-98,-199,
1650,7,20,2023,11,29,27,256,-1694,-665,3430,-64,-143,-69,
1651,7,20,2023,11,29,27,266,-1925,-345,3461,35,-200,55,
1652,7,20,2023,11,29,27,276,-2099,5,3516,65,-278,83,
1653,7,20,2023,11,29,27,286,-2151,225,3603,6,-370,10,
1654,7,20,2023,11,29,27,296,-2201,189,3665,-63,-440,-87,
1655,7,20,2023,11,29,27,306,-2220,40,3618,-84,-483,-155,
1656,7,20,2023,11,29,27,316,-1847,-23,3569,-66,-530,-175,
1657,7,20,2023,11,29,27,326,-1392,-249,3269,-18,-577,-137,
1658,7,20,2023,11,29,27,336,-768,-521,3517,29,-556,-50,
1659,7,20,2023,11,29,27,346,-886,-581,3753,106,-299,101,
1660,7,20,2023,11,29,27,356,-1195,-405,3689,193,62,267,
1661,7,20,2023,11,29,27,366,-1591,7,3646,243,308,407,
1662,7,20,2023,11,29,27,376,-2072,454,3660,211,430,415,
1663,7,20,2023,11,29,27,386,-2011,570,3745,71,531,288,
1664,7,20,2023,11,29,27,396,-1835,221,3789,-112,676,142,
1665,7,20,2023,11,29,27,406,-1645,-44,3813,-215,880,102,
1666,7,20,2023,11,29,27,416,-1577,-174,3724,-237,1123,139,
1667,7,20,2023,11,29,27,426,-1566,-215,3687,-225,1358,187,
1668,7,20,2023,11,29,27,436,-1232,-242,3819,-207,1665,236,
1669,7,20,2023,11,29,27,446,-1547,-139,3797,-183,2030,338,
1670,7,20,2023,11,29,27,456,-1846,-71,3756,-238,2388,426,
1671,7,20,2023,11,29,27,466,-1728,-195,3935,-241,2791,437,
1672,7,20,2023,11,29,27,476,-1489,-191,4143,-243,3335,454,
1673,7,20,2023,11,29,27,486,-1314,-251,4357,-308,4096,533,
1674,7,20,2023,11,29,27,496,-1387,-369,4531,-325,5039,586,
1675,7,20,2023,11,29,27,506,-1264,-294,4797,-327,6253,596,
1676,7,20,2023,11,29,27,516,-876,-533,4966,-269,7669,555,
1677,7,20,2023,11,29,27,526,-1104,-688,4925,-55,9068,555,
1678,7,20,2023,11,29,27,536,-1587,-768,4805,213,10439,742,
1679,7,20,2023,11,29,27,546,-1714,-787,4971,539,11925,1063,
1680,7,20,2023,11,29,27,556,-1651,-903,5075,1035,13326,1432,
1681,7,20,2023,11,29,27,566,-1707,-1086,4955,1650,14377,1856,
1682,7,20,2023,11,29,27,576,-1835,-1397,4208,2363,14871,2277,
1683,7,20,2023,11,29,27,586,-1027,-1891,2616,3136,14910,2459,
1684,7,20,2023,11,29,27,596,139,-1479,1692,3987,14921,2279,
1685,7,20,2023,11,29,27,606,699,-397,2263,4658,14529,1875,
1686,7,20,2023,11,29,27,616,4261,754,5487,4327,13152,1459,
1687,7,20,2023,11,29,27,626,4860,1322,10284,2143,10203,1121,
1688,7,20,2023,11,29,27,636,-7446,1520,16253,-1167,4683,7,
1689,7,20,2023,11,29,27,646,-708,-2322,10667,-3351,-4597,-922,
1690,7,20,2023,11,29,27,656,4300,-4561,3470,-2570,-9167,-1159,
1691,7,20,2023,11,29,27,666,4696,-3303,431,-239,-9074,-1400,
1692,7,20,2023,11,29,27,676,3051,-1105,620,1052,-7583,-1982,
1693,7,20,2023,11,29,27,686,864,418,2030,734,-6583,-2744,
1694,7,20,2023,11,29,27,696,199,1037,2529,-507,-6633,-3287,
1695,7,20,2023,11,29,27,706,212,1107,2330,-1828,-6881,-3309,
1696,7,20,2023,11,29,27,716,-212,1221,1884,-2690,-6740,-3006,
1697,7,20,2023,11,29,27,726,-202,912,1038,-3050,-6289,-2502,
1698,7,20,2023,11,29,27,736,-283,348,679,-2811,-5207,-1771,
1699,7,20,2023,11,29,27,746,-1454,462,1169,-2118,-3556,-939,
1700,7,20,2023,11,29,27,756,-3526,1069,2037,-1676,-2008,-316,
1701,7,20,2023,11,29,27,776,-8225,982,2629,-2679,-933,-274,
1702,7,20,2023,11,29,27,786,-10057,355,2128,-3545,-1254,-764,
1703,7,20,2023,11,29,27,796,-11067,-194,1207,-4101,-1759,-1362,
1704,7,20,2023,11,29,27,806,-11670,-536,140,-4140,-2203,-1939,
1705,7,20,2023,11,29,27,816,-11808,-583,-922,-3674,-2535,-2341,
1706,7,20,2023,11,29,27,826,-11328,-301,-1850,-2897,-2728,-2501,
1707,7,20,2023,11,29,27,836,-10732,-126,-2676,-2105,-2729,-2436,
1708,7,20,2023,11,29,27,846,-9656,73,-3720,-1365,-2688,-2141,
1709,7,20,2023,11,29,27,856,-8115,316,-4842,-816,-2355,-1890,
1710,7,20,2023,11,29,27,866,-7328,110,-5586,-625,-1465,-1802,
1711,7,20,2023,11,29,27,876,-6508,-319,-6099,-513,-295,-1665,
1712,7,20,2023,11,29,27,886,-6324,-510,-6131,-382,954,-1550,
1713,7,20,2023,11,29,27,896,-6594,-400,-5764,-414,1949,-1593,
1714,7,20,2023,11,29,27,906,-6716,-64,-5515,-663,2493,-1769,
1715,7,20,2023,11,29,27,916,-6265,220,-5408,-1013,2812,-1904,
1716,7,20,2023,11,29,27,926,-5450,496,-4972,-1316,3297,-1815,
1717,7,20,2023,11,29,27,936,-5285,32,-4100,-1511,4034,-1429,
1718,7,20,2023,11,29,27,946,-15784,-9588,13066,1796,4394,1095,
1719,7,20,2023,11,29,27,956,-17500,2027,13105,8184,-5428,595,
1720,7,20,2023,11,29,27,966,-4242,4806,1951,5148,-12504,-880,
1721,7,20,2023,11,29,27,976,-6504,-5948,3862,548,-13028,10,
1722,7,20,2023,11,29,27,986,-1299,-4557,4736,2641,-13595,459,
1723,7,20,2023,11,29,27,996,678,1943,7166,3291,-12704,1006,
1724,7,20,2023,11,29,28,6,-16,-1348,4695,1350,-11790,1854,
1725,7,20,2023,11,29,28,16,-1352,-1461,3830,1556,-10247,1672,
1726,7,20,2023,11,29,28,26,-166,-416,4916,2550,-8684,1521,
1727,7,20,2023,11,29,28,36,-1358,-19,4246,2873,-7007,1041,
1728,7,20,2023,11,29,28,46,-975,-148,4127,2800,-5546,520,
1729,7,20,2023,11,29,28,56,-1116,1243,4524,2005,-3912,503,
1730,7,20,2023,11,29,28,66,-1955,540,4343,1428,-2711,374,
1731,7,20,2023,11,29,28,76,-1490,-69,4264,1138,-1901,368,
1732,7,20,2023,11,29,28,86,-1315,-161,4078,897,-1300,399,
1733,7,20,2023,11,29,28,96,-1394,-370,3809,728,-852,444,
1734,7,20,2023,11,29,28,106,-1533,-552,3557,723,-657,531,
1735,7,20,2023,11,29,28,116,-1803,-436,3518,836,-670,609,
1736,7,20,2023,11,29,28,126,-1931,163,3735,824,-694,554,
1737,7,20,2023,11,29,28,136,-1837,377,3832,578,-553,349,
1738,7,20,2023,11,29,28,146,-1571,185,3809,305,-338,155,
1739,7,20,2023,11,29,28,156,-1492,91,3813,103,-134,64,
1740,7,20,2023,11,29,28,166,-1624,138,3812,-47,43,19,
1741,7,20,2023,11,29,28,176,-1628,-4,3785,-183,196,-31,
1742,7,20,2023,11,29,28,186,-1634,-159,3747,-287,337,-75,
1743,7,20,2023,11,29,28,196,-1695,-283,3684,-341,449,-87,
1744,7,20,2023,11,29,28,206,-1700,-463,3634,-344,495,-84,
1745,7,20,2023,11,29,28,216,-1690,-607,3601,-277,480,-49,
1746,7,20,2023,11,29,28,226,-1722,-613,3564,-161,433,12,
1747,7,20,2023,11,29,28,236,-1810,-494,3533,-55,348,69,
1748,7,20,2023,11,29,28,246,-1873,-330,3532,10,247,87,
1749,7,20,2023,11,29,28,256,-1834,-395,3548,36,157,98,
1750,7,20,2023,11,29,28,266,-1817,-458,3557,84,76,123,
1751,7,20,2023,11,29,28,276,-1834,-409,3606,143,6,162,
1752,7,20,2023,11,29,28,286,-1892,-416,3593,199,-57,185,
1753,7,20,2023,11,29,28,296,-1902,-403,3531,263,-137,195,
1754,7,20,2023,11,29,28,306,-1721,-298,3452,289,-225,197,
1755,7,20,2023,11,29,28,316,-1440,-349,3544,262,-270,195,
1756,7,20,2023,11,29,28,326,-1448,-226,3690,229,-224,205,
1757,7,20,2023,11,29,28,336,-1634,-73,3707,182,-93,214,
1758,7,20,2023,11,29,28,346,-1696,108,3715,147,55,205,
1759,7,20,2023,11,29,28,356,-1677,192,3779,81,243,169,
1760,7,20,2023,11,29,28,366,-1612,152,3829,-47,473,114,
1761,7,20,2023,11,29,28,376,-1547,-48,3784,-175,691,73,
1762,7,20,2023,11,29,28,386,-1739,-267,3638,-227,853,79,
1763,7,20,2023,11,29,28,396,-1811,-259,3573,-216,939,117,
1764,7,20,2023,11,29,28,406,-1871,-367,3539,-181,974,150,
1765,7,20,2023,11,29,28,416,-1834,-377,3595,-154,1010,181,
1766,7,20,2023,11,29,28,426,-1809,-362,3665,-136,1099,226,
1767,7,20,2023,11,29,28,436,-1615,-248,3812,-153,1297,273,
1768,7,20,2023,11,29,28,446,-1311,-248,3905,-222,1601,321,
1769,7,20,2023,11,29,28,456,-1721,-207,3757,-321,1878,402,
1770,7,20,2023,11,29,28,466,-2008,-295,3603,-416,2079,464,
1771,7,20,2023,11,29,28,476,-2068,-374,3602,-450,2272,493,
1772,7,20,2023,11,29,28,486,-1633,-355,3812,-490,2581,526,
1773,7,20,2023,11,29,28,496,-1595,-359,3971,-542,3039,580,
1774,7,20,2023,11,29,28,506,-1740,-352,4012,-641,3642,665,
1775,7,20,2023,11,29,28,516,-1478,-592,4243,-677,4568,741,
1776,7,20,2023,11,29,28,526,-1001,-709,4490,-569,5839,831,
1777,7,20,2023,11,29,28,536,-1194,-810,4299,-379,7117,879,
1778,7,20,2023,11,29,28,546,-1592,-700,4045,-186,8358,956,
1779,7,20,2023,11,29,28,556,-1932,-1011,3728,55,9634,1104,
1780,7,20,2023,11,29,28,566,-2250,-880,3756,443,11103,1251,
1781,7,20,2023,11,29,28,576,-2369,-972,4028,749,12623,1559,
1782,7,20,2023,11,29,28,586,-2862,-1181,4712,1127,13712,1963,
1783,7,20,2023,11,29,28,596,-3221,-1003,5323,1578,14109,2418,
1784,7,20,2023,11,29,28,606,-5764,-623,5999,1645,13715,2746,
1785,7,20,2023,11,29,28,616,-6802,-318,6120,1255,12067,2883,
1786,7,20,2023,11,29,28,636,-2115,-1006,3956,376,7431,3024,
1787,7,20,2023,11,29,28,646,2390,-1279,3472,-216,5688,2660,
1788,7,20,2023,11,29,28,656,7331,-214,5929,-820,4076,2522,
1789,7,20,2023,11,29,28,666,23,-827,8046,-1232,1701,2832,
1790,7,20,2023,11,29,28,676,-5,-3463,7538,-1179,-2462,2418,
1791,7,20,2023,11,29,28,686,4692,-4089,2366,-713,-5610,1277,
1792,7,20,2023,11,29,28,696,4205,-2633,1187,-231,-5448,44,
1793,7,20,2023,11,29,28,706,2296,-1573,2152,-653,-4798,-1363,
1794,7,20,2023,11,29,28,716,1083,-1557,2803,-1690,-5030,-2757,
1795,7,20,2023,11,29,28,726,1132,-1809,2140,-2191,-5699,-3864,
1796,7,20,2023,11,29,28,736,1538,-1342,1215,-1790,-5921,-4451,
1797,7,20,2023,11,29,28,746,1662,-204,843,-1013,-5431,-4454,
1798,7,20,2023,11,29,28,756,1370,986,1171,-560,-4528,-3895,
1799,7,20,2023,11,29,28,766,563,1602,2037,-746,-3644,-2986,
1800,7,20,2023,11,29,28,776,-347,1486,2762,-1327,-3082,-2042,
1801,7,20,2023,11,29,28,786,-1189,982,3236,-1873,-2736,-1357,
1802,7,20,2023,11,29,28,796,-2080,483,3590,-2209,-2432,-981,
1803,7,20,2023,11,29,28,806,-2991,195,3850,-2342,-2151,-848,
1804,7,20,2023,11,29,28,816,-4176,63,3882,-2413,-1926,-896,
1805,7,20,2023,11,29,28,826,-5524,-270,3607,-2496,-1780,-1074,
1806,7,20,2023,11,29,28,836,-6979,-538,3200,-2416,-1677,-1293,
1807,7,20,2023,11,29,28,846,-8572,-754,2753,-2148,-1729,-1492,
1808,7,20,2023,11,29,28,856,-9952,-935,2124,-1744,-2013,-1585,
1809,7,20,2023,11,29,28,866,-10772,-1131,1311,-1213,-2384,-1547,
1810,7,20,2023,11,29,28,876,-10931,-997,373,-661,-2715,-1494,
1811,7,20,2023,11,29,28,886,-10534,-753,-411,-339,-2911,-1518,
1812,7,20,2023,11,29,28,896,-9611,-694,-1057,-357,-2966,-1774,
1813,7,20,2023,11,29,28,906,-8127,-823,-1906,-449,-2882,-2136,
1814,7,20,2023,11,29,28,916,-6992,-916,-2675,-466,-2411,-2518,
1815,7,20,2023,11,29,28,926,-6418,-900,-2913,-347,-1548,-2809,
1816,7,20,2023,11,29,28,936,-5836,-686,-2929,-189,-667,-2950,
1817,7,20,2023,11,29,28,946,-5821,-195,-2590,-50,145,-2905,
1818,7,20,2023,11,29,28,956,-5997,467,-2003,-48,685,-2624,
1819,7,20,2023,11,29,28,966,-5980,1341,-1497,-300,856,-2144,
1820,7,20,2023,11,29,28,976,-5698,2375,-1267,-1026,816,-1667,
1821,7,20,2023,11,29,28,986,-5095,2826,-1379,-2294,795,-1359,
1822,7,20,2023,11,29,28,996,-4490,2470,-1643,-3644,1009,-1117,
1823,7,20,2023,11,29,29,6,-3937,1632,-2000,-4354,1515,-677,
1824,7,20,2023,11,29,29,16,-3469,634,-2150,-4031,2343,121,
1825,7,20,2023,11,29,29,26,-3495,-496,-2022,-2882,3371,970,
1826,7,20,2023,11,29,29,36,-4032,-1642,-1651,-1323,4355,1360,
1827,7,20,2023,11,29,29,46,-5844,-4122,-834,465,5037,1086,
1828,7,20,2023,11,29,29,56,-19200,-20597,11436,8018,4283,2798,
1829,7,20,2023,11,29,29,66,-13527,-114,6769,16682,-4585,300,
1830,7,20,2023,11,29,29,76,-10619,14258,4284,13327,-10863,-729,
1831,7,20,2023,11,29,29,86,-4294,1629,2201,2719,-14089,950,
1832,7,20,2023,11,29,29,96,368,-10496,3997,452,-13803,1857,
1833,7,20,2023,11,29,29,106,3070,2361,8145,4540,-11574,1287,
1834,7,20,2023,11,29,29,116,-176,-2377,4920,2632,-10409,2272,
1835,7,20,2023,11,29,29,126,-1889,-995,4088,3167,-8914,2265,
1836,7,20,2023,11,29,29,136,-655,2317,4804,3837,-7191,1892,
1837,7,20,2023,11,29,29,146,-871,2340,4478,2621,-5392,1370,
1838,7,20,2023,11,29,29,156,-2366,1526,4108,1660,-3784,894,
1839,7,20,2023,11,29,29,166,-1920,515,4146,1308,-2760,654,
1840,7,20,2023,11,29,29,176,-1707,705,4232,994,-1942,489,
1841,7,20,2023,11,29,29,186,-1871,746,4116,553,-1181,240,
1842,7,20,2023,11,29,29,196,-1772,131,3932,190,-642,25,
1843,7,20,2023,11,29,29,206,-1794,-345,3770,40,-362,-37,
1844,7,20,2023,11,29,29,216,-1938,-465,3699,52,-250,11,
1845,7,20,2023,11,29,29,226,-2062,-543,3628,147,-234,73,
1846,7,20,2023,11,29,29,236,-2114,-424,3614,277,-283,133,
1847,7,20,2023,11,29,29,246,-2076,-89,3664,357,-342,169,
1848,7,20,2023,11,29,29,256,-1895,119,3639,321,-350,127,
1849,7,20,2023,11,29,29,266,-1417,-55,3605,205,-286,32,
1850,7,20,2023,11,29,29,276,-1285,-164,3637,78,-156,9,
1851,7,20,2023,11,29,29,286,-1383,-167,3668,-49,17,32,
1852,7,20,2023,11,29,29,296,-1501,-360,3636,-99,143,59,
1853,7,20,2023,11,29,29,306,-1571,-286,3612,-93,226,97,
1854,7,20,2023,11,29,29,316,-1693,-266,3590,-104,283,111,
1855,7,20,2023,11,29,29,326,-1695,-329,3577,-63,293,132,
1856,7,20,2023,11,29,29,336,-1701,-192,3606,-2,286,166,
1857,7,20,2023,11,29,29,346,-1757,-127,3621,27,312,184,
1858,7,20,2023,11,29,29,356,-1793,-88,3588,20,338,178,
1859,7,20,2023,11,29,29,366,-1536,93,3651,-20,360,164,
1860,7,20,2023,11,29,29,376,-1287,-158,3663,-73,450,160,
1861,7,20,2023,11,29,29,386,-1389,-403,3608,-62,584,209,
1862,7,20,2023,11,29,29,396,-1608,-447,3525,33,684,321,
1863,7,20,2023,11,29,29,406,-1963,-277,3472,171,729,438,
1864,7,20,2023,11,29,29,416,-2045,16,3535,241,745,480,
1865,7,20,2023,11,29,29,426,-1737,-5,3680,233,793,459,
1866,7,20,2023,11,29,29,436,-1461,-177,3750,225,932,452,
1867,7,20,2023,11,29,29,446,-1557,-96,3733,253,1116,498,
1868,7,20,2023,11,29,29,456,-1811,129,3730,250,1295,541,
1869,7,20,2023,11,29,29,466,-1816,198,3750,153,1463,527,
1870,7,20,2023,11,29,29,476,-1971,141,3575,76,1613,454,
1871,7,20,2023,11,29,29,496,-2180,56,3484,-66,1816,357,
1872,7,20,2023,11,29,29,506,-2145,-146,3485,-122,1842,376,
1873,7,20,2023,11,29,29,516,-1980,-256,3521,-112,1903,433,
1874,7,20,2023,11,29,29,526,-1606,-409,3612,-108,2085,558,
1875,7,20,2023,11,29,29,536,-1496,-496,3678,-13,2359,709,
1876,7,20,2023,11,29,29,546,-2024,-232,3610,106,2614,905,
1877,7,20,2023,11,29,29,556,-2075,-40,3651,84,2887,1065,
1878,7,20,2023,11,29,29,566,-2089,95,3712,60,3229,1103,
1879,7,20,2023,11,29,29,576,-1987,98,3801,-14,3654,1108,
1880,7,20,2023,11,29,29,586,-2108,-9,3878,-119,4135,1133,
1881,7,20,2023,11,29,29,596,-2113,-128,3991,-222,4764,1200,
1882,7,20,2023,11,29,29,606,-2159,6,4287,-353,5688,1267,
1883,7,20,2023,11,29,29,616,-1593,29,4709,-522,7046,1283,
1884,7,20,2023,11,29,29,626,-675,-422,4903,-520,8688,1256,
1885,7,20,2023,11,29,29,636,-740,-627,4812,-154,10314,1332,
1886,7,20,2023,11,29,29,646,-1481,-356,4668,254,11829,1616,
1887,7,20,2023,11,29,29,656,-2102,-153,4337,482,13046,2014,
1888,7,20,2023,11,29,29,666,-2679,138,4093,540,13780,2367,
1889,7,20,2023,11,29,29,676,-2040,108,2934,573,13933,2623,
1890,7,20,2023,11,29,29,686,-1249,749,2463,373,13827,2745,
1891,7,20,2023,11,29,29,696,530,1292,2809,-736,13135,2878,
1892,7,20,2023,11,29,29,706,3236,579,5696,-2705,11484,2666,
1893,7,20,2023,11,29,29,716,4325,-238,8475,-4339,8181,1774,
1894,7,20,2023,11,29,29,726,-3467,-4801,10487,-5007,3921,729,
1895,7,20,2023,11,29,29,736,-1045,-7468,9187,-2605,-1598,226,
1896,7,20,2023,11,29,29,746,1616,-5101,5321,1053,-5523,-626,
1897,7,20,2023,11,29,29,756,2617,-2411,2599,3067,-6800,-1504,
1898,7,20,2023,11,29,29,766,2005,-657,1920,2795,-6646,-2731,
1899,7,20,2023,11,29,29,776,731,-289,2200,1379,-6324,-3892,
1900,7,20,2023,11,29,29,786,73,-689,2246,255,-6394,-4475,
1901,7,20,2023,11,29,29,796,-352,-650,2048,47,-6536,-4408,
1902,7,20,2023,11,29,29,806,-508,-10,1814,380,-6334,-3847,
1903,7,20,2023,11,29,29,816,-243,1173,1674,501,-5670,-2980,
1904,7,20,2023,11,29,29,826,-288,1924,1829,-188,-4659,-2044,
1905,7,20,2023,11,29,29,836,-1031,1832,2311,-1489,-3481,-1291,
1906,7,20,2023,11,29,29,846,-2122,1164,2809,-2811,-2396,-841,
1907,7,20,2023,11,29,29,856,-3659,450,3131,-3842,-1570,-620,
1908,7,20,2023,11,29,29,866,-5764,-234,3293,-4509,-1087,-569,
1909,7,20,2023,11,29,29,876,-7850,-1104,3171,-4909,-1097,-715,
1910,7,20,2023,11,29,29,886,-9818,-2023,2901,-4992,-1416,-1062,
1911,7,20,2023,11,29,29,896,-11531,-2822,2339,-4632,-1967,-1639,
1912,7,20,2023,11,29,29,906,-12681,-3197,1476,-3767,-2744,-2393,
1913,7,20,2023,11,29,29,916,-12649,-2950,298,-2396,-3641,-3141,
1914,7,20,2023,11,29,29,926,-11707,-2329,-1043,-878,-4343,-3644,
1915,7,20,2023,11,29,29,936,-10181,-1328,-2436,472,-4578,-3747,
1916,7,20,2023,11,29,29,946,-7763,39,-3908,1465,-4293,-3577,
1917,7,20,2023,11,29,29,956,-6174,1186,-4926,1640,-3181,-3436,
1918,7,20,2023,11,29,29,966,-5580,1565,-5075,1001,-1514,-3192,
1919,7,20,2023,11,29,29,976,-5490,1109,-4724,136,71,-2719,
1920,7,20,2023,11,29,29,986,-6042,388,-3910,-499,1131,-2150,
1921,7,20,2023,11,29,29,996,-6372,23,-3213,-809,1337,-1652,
1922,7,20,2023,11,29,30,6,-6219,536,-3017,-994,929,-1465,
1923,7,20,2023,11,29,30,16,-5395,1738,-3394,-1423,471,-1686,
1924,7,20,2023,11,29,30,26,-4302,2843,-4109,-2240,688,-1897,
1925,7,20,2023,11,29,30,36,-3744,3302,-4297,-2918,1936,-1466,
1926,7,20,2023,11,29,30,46,-4165,2744,-3721,-2944,3611,-388,
1927,7,20,2023,11,29,30,56,-5125,1408,-2610,-2088,4879,926,
1928,7,20,2023,11,29,30,66,-5519,245,-1644,-539,5374,1789,
1929,7,20,2023,11,29,30,76,-9929,-10894,4008,2483,5307,2564,
1930,7,20,2023,11,29,30,86,-20895,-19848,15500,14986,1056,3370,
1931,7,20,2023,11,29,30,96,-5344,13074,5199,19212,-8813,-1302,
1932,7,20,2023,11,29,30,106,-8512,17856,8088,9696,-11632,-911,
1933,7,20,2023,11,29,30,116,-3461,-9142,-579,-2449,-14507,1092,
1934,7,20,2023,11,29,30,126,-2851,-8259,2546,1548,-13059,954,
1935,7,20,2023,11,29,30,136,835,6268,7125,4316,-11739,947,
1936,7,20,2023,11,29,30,146,147,-2863,4445,1211,-11165,1625,
1937,7,20,2023,11,29,30,156,-915,703,4917,2448,-9565,1006,
1938,7,20,2023,11,29,30,166,-346,-1513,4791,2442,-7875,1210,
1939,7,20,2023,11,29,30,176,-118,1230,5017,2739,-6046,1012,
1940,7,20,2023,11,29,30,186,-1778,1624,4503,1936,-4282,835,
1941,7,20,2023,11,29,30,196,-2466,1781,4447,1153,-2882,455,
1942,7,20,2023,11,29,30,206,-1613,1189,4421,505,-1832,-33,
1943,7,20,2023,11,29,30,216,-1285,388,4214,-73,-924,-340,
1944,7,20,2023,11,29,30,226,-1329,39,4013,-479,-220,-449,
1945,7,20,2023,11,29,30,236,-1603,-297,3801,-687,267,-474,
1946,7,20,2023,11,29,30,246,-1655,-736,3624,-676,493,-442,
1947,7,20,2023,11,29,30,256,-1883,-914,3504,-502,492,-317,
1948,7,20,2023,11,29,30,266,-2134,-769,3450,-279,326,-158,
1949,7,20,2023,11,29,30,276,-2102,-497,3523,-141,123,-67,
1950,7,20,2023,11,29,30,286,-2005,-395,3625,-85,12,-49,
1951,7,20,2023,11,29,30,296,-2024,-228,3676,-53,-18,-58,
1952,7,20,2023,11,29,30,306,-2010,-92,3701,-66,4,-98,
1953,7,20,2023,11,29,30,316,-2038,-75,3709,-108,42,-167,
1954,7,20,2023,11,29,30,326,-2092,-111,3668,-146,60,-234,
1955,7,20,2023,11,29,30,336,-2093,-150,3605,-192,57,-305,
1956,7,20,2023,11,29,30,356,-1645,-551,3386,-317,-20,-347,
1957,7,20,2023,11,29,30,366,-1224,-959,3455,-292,-26,-259,
1958,7,20,2023,11,29,30,376,-1179,-866,3569,-139,-15,-111,
1959,7,20,2023,11,29,30,386,-1606,-470,3581,-20,12,4,
1960,7,20,2023,11,29,30,396,-1769,-452,3542,-2,37,17,
1961,7,20,2023,11,29,30,406,-1706,-386,3535,9,23,18,
1962,7,20,2023,11,29,30,416,-1809,-299,3552,47,2,46,
1963,7,20,2023,11,29,30,426,-1860,-278,3623,92,-2,70,
1964,7,20,2023,11,29,30,436,-1947,-367,3594,127,-20,73,
1965,7,20,2023,11,29,30,446,-1802,-493,3430,156,-62,88,
1966,7,20,2023,11,29,30,456,-1151,-857,3344,186,-128,159,
1967,7,20,2023,11,29,30,466,-1110,-906,3485,286,-144,321,
1968,7,20,2023,11,29,30,476,-1491,-719,3446,405,-96,509,
1969,7,20,2023,11,29,30,486,-1676,-536,3493,498,-69,652,
1970,7,20,2023,11,29,30,496,-1989,-387,3461,591,-110,710,
1971,7,20,2023,11,29,30,506,-2097,-259,3539,635,-160,703,
1972,7,20,2023,11,29,30,516,-2043,24,3696,597,-137,623,
1973,7,20,2023,11,29,30,526,-1881,169,3830,488,-3,499,
1974,7,20,2023,11,29,30,536,-1601,189,3965,348,254,383,
1975,7,20,2023,11,29,30,546,-1299,154,4025,192,609,296,
1976,7,20,2023,11,29,30,556,-1420,32,3854,69,939,256,
1977,7,20,2023,11,29,30,566,-1723,-57,3605,14,1121,250,
1978,7,20,2023,11,29,30,576,-1909,-206,3457,-16,1148,264,
1979,7,20,2023,11,29,30,586,-2169,-264,3502,-35,1107,307,
1980,7,20,2023,11,29,30,596,-1945,-200,3646,-66,1145,364,
1981,7,20,2023,11,29,30,606,-1714,-94,3848,-151,1330,398,
1982,7,20,2023,11,29,30,616,-1196,-41,4104,-293,1760,396,
1983,7,20,2023,11,29,30,626,-808,-424,4140,-387,2381,395,
1984,7,20,2023,11,29,30,636,-1352,-417,3995,-363,2987,456,
1985,7,20,2023,11,29,30,646,-2028,-352,3773,-401,3434,596,
1986,7,20,2023,11,29,30,656,-2295,-115,3715,-448,3787,678,
1987,7,20,2023,11,29,30,666,-2025,-70,3713,-512,4154,698,
1988,7,20,2023,11,29,30,676,-2085,-47,3630,-552,4542,650,
1989,7,20,2023,11,29,30,686,-1997,-133,3619,-581,4956,580,
1990,7,20,2023,11,29,30,696,-2143,-250,3559,-574,5379,543,
1991,7,20,2023,11,29,30,706,-1914,-334,3454,-575,5767,541,
1992,7,20,2023,11,29,30,716,-2621,-542,3136,-502,5956,554,
1993,7,20,2023,11,29,30,726,-2956,-427,3058,-476,6155,622,
1994,7,20,2023,11,29,30,736,-2526,-335,3127,-527,6441,680,
1995,7,20,2023,11,29,30,746,-2668,-339,3088,-520,6760,641,
1996,7,20,2023,11,29,30,756,-2787,-49,3093,-517,7272,497,
1997,7,20,2023,11,29,30,766,-2724,-95,3302,-509,7977,307,
1998,7,20,2023,11,29,30,776,-2399,-107,3517,-279,8914,159,
1999,7,20,2023,11,29,30,786,-2309,-297,3836,-45,10061,134,
2000,7,20,2023,11,29,30,796,-2124,-760,3844,225,10993,286,
2001,7,20,2023,11,29,30,806,-2034,-1145,3199,588,11624,594,
2002,7,20,2023,11,29,30,816,-1975,-1337,2281,957,12027,914,
2003,7,20,2023,11,29,30,826,-1842,-1974,849,1391,12189,1076,
2004,7,20,2023,11,29,30,836,-2098,-1907,310,2224,12358,920,
2005,7,20,2023,11,29,30,846,-2074,-417,1707,2934,12288,576,
2006,7,20,2023,11,29,30,856,177,943,5219,2524,11231,56,
2007,7,20,2023,11,29,30,866,1118,2776,9252,702,8237,-1222,
2008,7,20,2023,11,29,30,876,-5751,193,11934,-1862,3409,-2854,
2009,7,20,2023,11,29,30,886,-3006,-3435,9655,-1862,-3120,-2786,
2010,7,20,2023,11,29,30,896,1815,-1736,4807,249,-7435,-2353,
2011,7,20,2023,11,29,30,906,2373,355,2597,1951,-8288,-1737,
2012,7,20,2023,11,29,30,916,1748,1488,1875,2016,-7979,-1105,
2013,7,20,2023,11,29,30,926,528,1693,2100,1147,-7417,-389,
2014,7,20,2023,11,29,30,936,-258,1182,2511,230,-7126,443,
2015,7,20,2023,11,29,30,946,-823,602,2710,-254,-7127,1386,
2016,7,20,2023,11,29,30,956,-1295,291,2862,-469,-7207,2232,
2017,7,20,2023,11,29,30,966,-1675,186,2949,-776,-7172,2676,
2018,7,20,2023,11,29,30,976,-1790,161,2689,-1355,-7015,2618,
2019,7,20,2023,11,29,30,986,-1337,45,2058,-2049,-6597,2203,
2020,7,20,2023,11,29,30,996,-982,-378,1540,-2603,-5620,1717,
2021,7,20,2023,11,29,31,6,-1535,-896,1379,-2805,-4184,1416,
2022,7,20,2023,11,29,31,16,-3004,-1082,1639,-2629,-2680,1238,
2023,7,20,2023,11,29,31,26,-4891,-1336,1921,-2366,-1594,921,
2024,7,20,2023,11,29,31,36,-6797,-1486,2119,-2082,-1068,437,
2025,7,20,2023,11,29,31,46,-8680,-1436,2231,-1893,-1019,-299,
2026,7,20,2023,11,29,31,56,-10167,-1407,2000,-1896,-1400,-1274,
2027,7,20,2023,11,29,31,66,-10868,-1434,1221,-1888,-2106,-2293,
2028,7,20,2023,11,29,31,76,-10730,-1274,89,-1583,-2894,-3130,
2029,7,20,2023,11,29,31,86,-9884,-861,-1127,-918,-3440,-3608,
2030,7,20,2023,11,29,31,96,-8762,-33,-2128,-151,-3546,-3695,
2031,7,20,2023,11,29,31,106,-7682,716,-2643,356,-3287,-3473,
2032,7,20,2023,11,29,31,116,-6444,1046,-2778,496,-2851,-2975,
2033,7,20,2023,11,29,31,126,-5183,1046,-2719,311,-2280,-2305,
2034,7,20,2023,11,29,31,136,-4457,776,-2444,2,-1505,-1598,
2035,7,20,2023,11,29,31,146,-4274,407,-2058,-369,-677,-924,
2036,7,20,2023,11,29,31,156,-4789,108,-1779,-923,34,-451,
2037,7,20,2023,11,29,31,166,-5689,-156,-1700,-1670,426,-266,
2038,7,20,2023,11,29,31,176,-6128,-443,-1989,-2516,435,-280,
2039,7,20,2023,11,29,31,186,-6031,-356,-2600,-3226,324,-333,
2040,7,20,2023,11,29,31,196,-5293,248,-3455,-3726,401,-285,
2041,7,20,2023,11,29,31,216,-4138,1393,-4342,-4427,2264,334,
2042,7,20,2023,11,29,31,226,-4598,1419,-4093,-4297,3678,938,
2043,7,20,2023,11,29,31,236,-6584,-793,-3078,-3479,4840,1594,
2044,7,20,2023,11,29,31,246,-21098,-17803,16968,2381,4270,3295,
2045,7,20,2023,11,29,31,256,-15280,868,7781,9946,-8087,88,
2046,7,20,2023,11,29,31,266,-3574,7255,2903,7501,-13334,-463,
2047,7,20,2023,11,29,31,276,-3574,7255,2903,7501,-13334,-463,
2048,7,20,2023,11,29,31,286,-3574,7255,2903,7501,-13334,-463,
2049,7,20,2023,11,29,31,296,-3574,7255,2903,7501,-13334,-463,
2050,7,20,2023,11,29,31,306,-2559,-2587,3428,1333,-10436,2020,
2051,7,20,2023,11,29,31,316,-2909,356,3867,2710,-9096,1529,
2052,7,20,2023,11,29,31,326,129,1468,4770,3054,-7856,1238,
2053,7,20,2023,11,29,31,336,-574,2294,4572,2425,-6287,478,
2054,7,20,2023,11,29,31,346,-1318,1172,4341,1185,-4506,63,
2055,7,20,2023,11,29,31,356,-1595,528,4400,586,-3007,-137,
2056,7,20,2023,11,29,31,366,-1240,148,4373,299,-1903,-261,
2057,7,20,2023,11,29,31,376,-1333,191,4072,2,-1049,-284,
2058,7,20,2023,11,29,31,386,-1445,-107,3894,-289,-407,-277,
2059,7,20,2023,11,29,31,396,-1763,-345,3729,-433,-47,-279,
2060,7,20,2023,11,29,31,406,-1821,-527,3632,-452,100,-267,
2061,7,20,2023,11,29,31,416,-1885,-692,3535,-379,119,-212,
2062,7,20,2023,11,29,31,426,-1970,-737,3498,-210,41,-119,
2063,7,20,2023,11,29,31,436,-1927,-602,3557,-66,-57,-38,
2064,7,20,2023,11,29,31,446,-1906,-408,3587,-2,-93,-8,
2065,7,20,2023,11,29,31,456,-1809,-209,3667,-7,-80,-20,
2066,7,20,2023,11,29,31,466,-1791,-34,3744,-75,-15,-47,
2067,7,20,2023,11,29,31,476,-1803,27,3768,-186,84,-107,
2068,7,20,2023,11,29,31,486,-1830,-132,3735,-290,183,-194,
2069,7,20,2023,11,29,31,496,-1818,-324,3637,-335,248,-251,
2070,7,20,2023,11,29,31,506,-1751,-433,3606,-338,271,-263,
2071,7,20,2023,11,29,31,516,-1803,-454,3577,-319,256,-254,
2072,7,20,2023,11,29,31,526,-1797,-486,3492,-286,215,-242,
2073,7,20,2023,11,29,31,536,-1687,-624,3460,-238,166,-205,
