Packet #, Month, Day, Year, Hour, Minute, Second, MS, ACC X, ACC Y, ACC Z, GYR X, GYR Y, GYR Z
1,7,10,2023,15,7,34,771,0,0,0,0,0,0,
2,7,10,2023,15,7,34,781,0,0,0,0,0,0,
3,7,10,2023,15,7,34,791,0,0,0,0,0,0,
4,7,10,2023,15,7,34,801,0,0,0,0,0,0,
5,7,10,2023,15,7,34,811,0,0,0,0,0,0,
6,7,10,2023,15,7,34,821,0,0,0,0,0,0,
7,7,10,2023,15,7,34,831,-1687,-1175,3535,4,47,-31,
8,7,10,2023,15,7,34,841,-1657,-1225,3567,-2,75,-38,
9,7,10,2023,15,7,34,851,-1725,-1152,3522,27,118,6,
10,7,10,2023,15,7,34,861,-1748,-1091,3543,21,86,16,
11,7,10,2023,15,7,34,871,-1776,-1084,3577,1,88,5,
12,7,10,2023,15,7,34,881,-1809,-1184,3516,-20,131,-19,
13,7,10,2023,15,7,34,891,-1798,-1215,3487,-4,90,-4,
14,7,10,2023,15,7,34,901,-1796,-1192,3522,22,30,13,
15,7,10,2023,15,7,34,911,-1837,-1100,3536,45,53,24,
16,7,10,2023,15,7,34,921,-1864,-1045,3535,36,33,10,
17,7,10,2023,15,7,34,931,-1812,-1160,3535,10,-16,-31,
18,7,10,2023,15,7,34,941,-1774,-1224,3531,18,-11,-26,
19,7,10,2023,15,7,34,951,-1791,-1155,3590,32,-13,8,
20,7,10,2023,15,7,34,961,-1794,-1101,3600,-21,10,38,
21,7,10,2023,15,7,34,971,-1908,-1122,3499,-45,79,31,
22,7,10,2023,15,7,34,981,-1928,-1077,3491,-20,-20,4,
23,7,10,2023,15,7,34,991,-1890,-1095,3575,-19,-123,-30,
24,7,10,2023,15,7,35,1,-1908,-1146,3531,-16,-83,-56,
25,7,10,2023,15,7,35,11,-1884,-1087,3514,4,-139,-51,
26,7,10,2023,15,7,35,21,-1830,-1107,3556,6,-217,-75,
27,7,10,2023,15,7,35,31,-1648,-1116,3488,12,-181,-85,
28,7,10,2023,15,7,35,41,-1490,-1130,3541,2,-177,-74,
29,7,10,2023,15,7,35,51,-1563,-1132,3630,11,-122,-37,
30,7,10,2023,15,7,35,61,-1685,-1133,3507,8,44,-25,
31,7,10,2023,15,7,35,71,-1637,-1129,3489,5,20,-19,
32,7,10,2023,15,7,35,81,-1611,-1220,3535,7,8,-22,
33,7,10,2023,15,7,35,91,-1698,-1176,3521,37,93,7,
34,7,10,2023,15,7,35,101,-1747,-1160,3516,28,94,-6,
35,7,10,2023,15,7,35,111,-1786,-1193,3536,26,63,0,
36,7,10,2023,15,7,35,121,-1807,-1184,3509,45,87,3,
37,7,10,2023,15,7,35,131,-1802,-1107,3536,64,58,9,
38,7,10,2023,15,7,35,141,-1792,-1115,3550,46,40,-9,
39,7,10,2023,15,7,35,151,-1784,-1148,3536,40,44,-18,
40,7,10,2023,15,7,35,161,-1787,-1095,3560,42,24,-5,
41,7,10,2023,15,7,35,171,-1806,-1025,3590,35,27,-4,
42,7,10,2023,15,7,35,181,-1797,-1033,3565,3,46,-25,
43,7,10,2023,15,7,35,191,-1760,-1136,3541,-31,40,-45,
44,7,10,2023,15,7,35,201,-1724,-1160,3542,-29,46,-44,
45,7,10,2023,15,7,35,211,-1728,-1164,3553,-28,51,-27,
46,7,10,2023,15,7,35,221,-1739,-1168,3542,-23,71,-16,
47,7,10,2023,15,7,35,231,-1763,-1151,3518,-18,90,-14,
48,7,10,2023,15,7,35,241,-1752,-1158,3523,-21,76,-9,
49,7,10,2023,15,7,35,251,-1768,-1173,3532,-14,81,0,
50,7,10,2023,15,7,35,261,-1797,-1121,3525,-3,88,7,
51,7,10,2023,15,7,35,271,-1786,-1083,3546,-5,65,9,
52,7,10,2023,15,7,35,281,-1791,-1091,3550,-13,70,-1,
53,7,10,2023,15,7,35,291,-1770,-1116,3540,-27,76,-4,
54,7,10,2023,15,7,35,301,-1764,-1121,3551,-28,78,2,
55,7,10,2023,15,7,35,311,-1759,-1138,3539,-34,95,6,
56,7,10,2023,15,7,35,321,-1768,-1164,3536,-38,93,13,
57,7,10,2023,15,7,35,331,-1804,-1135,3530,-26,99,20,
58,7,10,2023,15,7,35,341,-1789,-1104,3520,-36,97,17,
59,7,10,2023,15,7,35,351,-1772,-1111,3540,-45,97,17,
60,7,10,2023,15,7,35,361,-1763,-1096,3542,-51,113,22,
61,7,10,2023,15,7,35,371,-1773,-1091,3552,-65,117,20,
62,7,10,2023,15,7,35,381,-1803,-1133,3523,-72,136,9,
63,7,10,2023,15,7,35,391,-1823,-1167,3510,-69,129,-1,
64,7,10,2023,15,7,35,401,-1828,-1159,3506,-62,109,0,
65,7,10,2023,15,7,35,411,-1827,-1158,3496,-52,95,4,
66,7,10,2023,15,7,35,421,-1816,-1180,3499,-45,80,7,
67,7,10,2023,15,7,35,431,-1787,-1169,3510,-31,76,11,
68,7,10,2023,15,7,35,441,-1793,-1145,3534,-20,77,20,
69,7,10,2023,15,7,35,451,-1828,-1136,3519,-23,93,20,
70,7,10,2023,15,7,35,461,-1823,-1121,3519,-25,84,17,
71,7,10,2023,15,7,35,471,-1820,-1121,3516,-30,80,11,
72,7,10,2023,15,7,35,481,-1797,-1146,3506,-39,79,7,
73,7,10,2023,15,7,35,491,-1801,-1146,3515,-36,77,5,
74,7,10,2023,15,7,35,501,-1827,-1132,3524,-36,82,9,
75,7,10,2023,15,7,35,511,-1831,-1138,3499,-41,92,6,
76,7,10,2023,15,7,35,521,-1801,-1164,3501,-39,79,2,
77,7,10,2023,15,7,35,531,-1777,-1174,3503,-34,77,8,
78,7,10,2023,15,7,35,541,-1803,-1183,3495,-26,88,15,
79,7,10,2023,15,7,35,551,-1808,-1138,3512,-11,79,29,
80,7,10,2023,15,7,35,561,-1844,-1130,3515,-12,84,29,
81,7,10,2023,15,7,35,571,-1832,-1152,3490,-20,94,23,
82,7,10,2023,15,7,35,581,-1744,-1168,3503,-17,84,26,
83,7,10,2023,15,7,35,591,-1727,-1184,3531,-8,104,44,
84,7,10,2023,15,7,35,601,-1791,-1180,3516,-3,135,62,
85,7,10,2023,15,7,35,611,-1852,-1124,3507,4,150,63,
86,7,10,2023,15,7,35,631,-1912,-1105,3481,-20,132,34,
87,7,10,2023,15,7,35,641,-1884,-1150,3484,-34,100,20,
88,7,10,2023,15,7,35,651,-1861,-1196,3481,-31,86,15,
89,7,10,2023,15,7,35,661,-1868,-1184,3489,-17,79,23,
90,7,10,2023,15,7,35,671,-1862,-1165,3481,-6,79,30,
91,7,10,2023,15,7,35,681,-1852,-1155,3493,-2,69,32,
92,7,10,2023,15,7,35,691,-1861,-1138,3493,-1,65,25,
93,7,10,2023,15,7,35,701,-1861,-1133,3496,-5,67,23,
94,7,10,2023,15,7,35,711,-1850,-1146,3497,-6,69,22,
95,7,10,2023,15,7,35,721,-1860,-1133,3501,-4,69,22,
96,7,10,2023,15,7,35,731,-1864,-1118,3509,-12,73,19,
97,7,10,2023,15,7,35,741,-1865,-1097,3521,-24,68,13,
98,7,10,2023,15,7,35,751,-1857,-1112,3497,-38,81,1,
99,7,10,2023,15,7,35,761,-1843,-1117,3506,-47,83,0,
100,7,10,2023,15,7,35,771,-1851,-1158,3503,-53,91,1,
101,7,10,2023,15,7,35,781,-1866,-1144,3476,-50,97,2,
102,7,10,2023,15,7,35,791,-1884,-1158,3479,-45,93,6,
103,7,10,2023,15,7,35,801,-1900,-1173,3464,-37,90,5,
104,7,10,2023,15,7,35,811,-1884,-1177,3468,-35,71,2,
105,7,10,2023,15,7,35,821,-1878,-1188,3451,-27,66,0,
106,7,10,2023,15,7,35,831,-1849,-1190,3465,-15,40,16,
107,7,10,2023,15,7,35,841,-1861,-1137,3483,-2,44,29,
108,7,10,2023,15,7,35,851,-1843,-1111,3495,-3,47,25,
109,7,10,2023,15,7,35,861,-1847,-1125,3502,-12,64,21,
110,7,10,2023,15,7,35,871,-1838,-1132,3513,-25,77,19,
111,7,10,2023,15,7,35,881,-1877,-1140,3483,-30,97,19,
112,7,10,2023,15,7,35,891,-1912,-1145,3482,-31,91,18,
113,7,10,2023,15,7,35,901,-1926,-1165,3460,-17,63,9,
114,7,10,2023,15,7,35,911,-1940,-1165,3455,-17,49,7,
115,7,10,2023,15,7,35,921,-1952,-1151,3437,-6,27,5,
116,7,10,2023,15,7,35,931,-1909,-1123,3455,2,-9,7,
117,7,10,2023,15,7,35,941,-1856,-1122,3481,4,-21,4,
118,7,10,2023,15,7,35,951,-1866,-1107,3486,-2,-9,-5,
119,7,10,2023,15,7,35,961,-1870,-1132,3479,-16,-2,-14,
120,7,10,2023,15,7,35,971,-1871,-1194,3473,-18,6,-20,
121,7,10,2023,15,7,35,981,-1897,-1210,3459,-2,11,-8,
122,7,10,2023,15,7,35,991,-1901,-1170,3460,11,-6,5,
123,7,10,2023,15,7,36,1,-1883,-1164,3471,17,-18,12,
124,7,10,2023,15,7,36,11,-1894,-1182,3454,24,-19,13,
125,7,10,2023,15,7,36,21,-1872,-1162,3458,33,-34,21,
126,7,10,2023,15,7,36,31,-1858,-1170,3479,43,-36,32,
127,7,10,2023,15,7,36,41,-1865,-1144,3478,52,-26,40,
128,7,10,2023,15,7,36,51,-1859,-1120,3513,51,-38,47,
129,7,10,2023,15,7,36,61,-1868,-1103,3499,45,-16,41,
130,7,10,2023,15,7,36,71,-1883,-1095,3517,31,-13,35,
131,7,10,2023,15,7,36,81,-1892,-1094,3508,10,6,16,
132,7,10,2023,15,7,36,91,-1883,-1121,3483,-19,16,-2,
133,7,10,2023,15,7,36,101,-1861,-1186,3479,-26,15,-10,
134,7,10,2023,15,7,36,111,-1867,-1183,3472,-18,18,-1,
135,7,10,2023,15,7,36,121,-1866,-1172,3466,0,23,14,
136,7,10,2023,15,7,36,131,-1867,-1176,3472,9,17,21,
137,7,10,2023,15,7,36,141,-1886,-1193,3471,21,15,27,
138,7,10,2023,15,7,36,151,-1896,-1177,3460,36,11,40,
139,7,10,2023,15,7,36,161,-1896,-1151,3474,54,-7,50,
140,7,10,2023,15,7,36,171,-1905,-1154,3469,61,-16,49,
141,7,10,2023,15,7,36,181,-1922,-1143,3467,68,-22,49,
142,7,10,2023,15,7,36,191,-1918,-1111,3464,77,-41,51,
143,7,10,2023,15,7,36,201,-1899,-1110,3467,82,-63,46,
144,7,10,2023,15,7,36,211,-1878,-1101,3472,86,-72,44,
145,7,10,2023,15,7,36,221,-1854,-1111,3490,78,-80,39,
146,7,10,2023,15,7,36,231,-1837,-1109,3502,78,-72,41,
147,7,10,2023,15,7,36,241,-1835,-1108,3499,77,-58,40,
148,7,10,2023,15,7,36,251,-1853,-1103,3501,71,-36,44,
149,7,10,2023,15,7,36,261,-1890,-1105,3506,69,-33,48,
150,7,10,2023,15,7,36,271,-1885,-1094,3496,64,-34,47,
151,7,10,2023,15,7,36,281,-1893,-1086,3504,60,-43,44,
152,7,10,2023,15,7,36,291,-1902,-1105,3496,51,-41,32,
153,7,10,2023,15,7,36,301,-1890,-1120,3498,50,-45,25,
154,7,10,2023,15,7,36,311,-1862,-1137,3495,48,-46,26,
155,7,10,2023,15,7,36,321,-1870,-1143,3489,54,-42,31,
156,7,10,2023,15,7,36,331,-1883,-1122,3467,64,-43,31,
157,7,10,2023,15,7,36,341,-1855,-1100,3495,72,-69,36,
158,7,10,2023,15,7,36,351,-1848,-1100,3515,73,-75,40,
159,7,10,2023,15,7,36,361,-1858,-1083,3513,71,-54,41,
160,7,10,2023,15,7,36,371,-1871,-1051,3512,62,-51,35,
161,7,10,2023,15,7,36,381,-1876,-1064,3503,49,-52,24,
162,7,10,2023,15,7,36,391,-1869,-1088,3505,41,-52,11,
163,7,10,2023,15,7,36,401,-1862,-1080,3521,42,-60,13,
164,7,10,2023,15,7,36,411,-1850,-1105,3511,39,-45,9,
165,7,10,2023,15,7,36,421,-1847,-1081,3524,36,-44,11,
166,7,10,2023,15,7,36,431,-1853,-1086,3522,29,-40,4,
167,7,10,2023,15,7,36,441,-1863,-1101,3507,27,-28,1,
168,7,10,2023,15,7,36,451,-1855,-1110,3490,26,-30,-2,
169,7,10,2023,15,7,36,461,-1837,-1099,3496,31,-34,-2,
170,7,10,2023,15,7,36,471,-1838,-1110,3497,30,-40,0,
171,7,10,2023,15,7,36,491,-1860,-1093,3499,43,-48,12,
172,7,10,2023,15,7,36,501,-1871,-1090,3498,49,-56,15,
173,7,10,2023,15,7,36,511,-1904,-1054,3489,56,-57,18,
174,7,10,2023,15,7,36,521,-1887,-1040,3516,57,-89,12,
175,7,10,2023,15,7,36,531,-1842,-1072,3539,46,-101,0,
176,7,10,2023,15,7,36,541,-1826,-1070,3540,46,-85,5,
177,7,10,2023,15,7,36,551,-1819,-1068,3535,41,-73,3,
178,7,10,2023,15,7,36,561,-1809,-1086,3522,30,-51,-1,
179,7,10,2023,15,7,36,571,-1818,-1062,3534,23,-40,0,
180,7,10,2023,15,7,36,581,-1816,-1063,3523,15,-26,-5,
181,7,10,2023,15,7,36,591,-1831,-1082,3508,9,-13,-7,
182,7,10,2023,15,7,36,601,-1829,-1091,3508,5,-15,-12,
183,7,10,2023,15,7,36,611,-1830,-1096,3515,5,-11,-11,
184,7,10,2023,15,7,36,621,-1846,-1135,3492,10,-3,-11,
185,7,10,2023,15,7,36,631,-1858,-1093,3500,31,-18,3,
186,7,10,2023,15,7,36,641,-1848,-1086,3521,32,-41,-4,
187,7,10,2023,15,7,36,651,-1877,-1089,3515,35,-30,-4,
188,7,10,2023,15,7,36,661,-1863,-1082,3501,38,-46,-6,
189,7,10,2023,15,7,36,671,-1845,-1059,3532,40,-70,-8,
190,7,10,2023,15,7,36,681,-1820,-1051,3544,32,-65,-12,
191,7,10,2023,15,7,36,691,-1833,-1050,3534,22,-51,-16,
192,7,10,2023,15,7,36,701,-1864,-1061,3518,20,-43,-11,
193,7,10,2023,15,7,36,711,-1854,-1033,3536,14,-59,-13,
194,7,10,2023,15,7,36,721,-1838,-1038,3533,7,-64,-28,
195,7,10,2023,15,7,36,731,-1866,-1041,3499,2,-44,-38,
196,7,10,2023,15,7,36,741,-1855,-1083,3489,-3,-74,-45,
197,7,10,2023,15,7,36,751,-1806,-1119,3509,10,-105,-42,
198,7,10,2023,15,7,36,761,-1808,-1146,3498,26,-86,-30,
199,7,10,2023,15,7,36,771,-1802,-1101,3516,49,-99,-14,
200,7,10,2023,15,7,36,781,-1805,-1068,3546,56,-108,-6,
201,7,10,2023,15,7,36,791,-1815,-1078,3531,56,-89,-7,
202,7,10,2023,15,7,36,801,-1798,-1079,3534,57,-93,-6,
203,7,10,2023,15,7,36,811,-1787,-1084,3546,60,-91,-3,
204,7,10,2023,15,7,36,821,-1806,-1073,3549,62,-83,8,
205,7,10,2023,15,7,36,831,-1829,-1000,3542,62,-78,12,
206,7,10,2023,15,7,36,841,-1854,-962,3553,44,-78,-3,
207,7,10,2023,15,7,36,851,-1844,-963,3559,18,-86,-26,
208,7,10,2023,15,7,36,861,-1862,-907,3592,-6,-91,-43,
209,7,10,2023,15,7,36,871,-1850,-961,3585,-59,-87,-82,
210,7,10,2023,15,7,36,881,-1830,-995,3570,-91,-84,-109,
211,7,10,2023,15,7,36,891,-1813,-1004,3574,-125,-83,-124,
212,7,10,2023,15,7,36,901,-1741,-1092,3523,-162,-59,-145,
213,7,10,2023,15,7,36,911,-1705,-1190,3491,-157,-42,-140,
214,7,10,2023,15,7,36,921,-1714,-1248,3497,-115,-66,-101,
215,7,10,2023,15,7,36,931,-1724,-1263,3459,-60,-40,-66,
216,7,10,2023,15,7,36,941,-1748,-1193,3463,20,-69,-22,
217,7,10,2023,15,7,36,951,-1769,-1121,3518,70,-124,12,
218,7,10,2023,15,7,36,961,-1788,-1054,3537,95,-111,26,
219,7,10,2023,15,7,36,971,-1782,-985,3572,98,-127,21,
220,7,10,2023,15,7,36,981,-1754,-972,3640,71,-137,9,
221,7,10,2023,15,7,36,991,-1777,-972,3629,37,-73,-2,
222,7,10,2023,15,7,37,1,-1808,-998,3593,-8,-40,-35,
223,7,10,2023,15,7,37,11,-1742,-1022,3580,-47,-55,-50,
224,7,10,2023,15,7,37,21,-1712,-1097,3592,-71,-32,-62,
225,7,10,2023,15,7,37,31,-1737,-1137,3574,-72,17,-55,
226,7,10,2023,15,7,37,41,-1751,-1135,3533,-68,47,-51,
227,7,10,2023,15,7,37,51,-1747,-1181,3539,-67,30,-46,
228,7,10,2023,15,7,37,61,-1782,-1173,3537,-40,40,-26,
229,7,10,2023,15,7,37,71,-1811,-1117,3521,-14,49,-11,
230,7,10,2023,15,7,37,81,-1770,-1060,3553,-5,7,-7,
231,7,10,2023,15,7,37,91,-1746,-1071,3580,-16,7,-22,
232,7,10,2023,15,7,37,101,-1776,-1068,3550,-26,61,-26,
233,7,10,2023,15,7,37,111,-1789,-1097,3520,-41,58,-36,
234,7,10,2023,15,7,37,121,-1783,-1147,3532,-43,34,-44,
235,7,10,2023,15,7,37,131,-1757,-1138,3526,-32,39,-36,
236,7,10,2023,15,7,37,141,-1786,-1161,3510,-23,47,-29,
237,7,10,2023,15,7,37,151,-1817,-1038,3528,28,35,-16,
238,7,10,2023,15,7,37,161,-1811,-1050,3516,-37,-3,-21,
239,7,10,2023,15,7,37,171,-1786,-1179,3518,-51,-21,-33,
240,7,10,2023,15,7,37,181,-1743,-1242,3485,7,13,-32,
241,7,10,2023,15,7,37,191,-1860,-1265,3371,62,-3,5,
242,7,10,2023,15,7,37,201,-1731,-1179,3543,112,-175,36,
243,7,10,2023,15,7,37,211,-1735,-1142,3628,132,-142,51,
244,7,10,2023,15,7,37,221,-1812,-1099,3482,179,28,57,
245,7,10,2023,15,7,37,231,-1946,-1148,3265,112,-209,84,
246,7,10,2023,15,7,37,241,-2174,-1526,2636,64,-1275,360,
247,7,10,2023,15,7,37,251,-1098,-537,4888,337,-2595,545,
248,7,10,2023,15,7,37,261,-1622,-1156,3691,58,-356,270,
249,7,10,2023,15,7,37,271,-1850,-1014,3543,359,164,221,
250,7,10,2023,15,7,37,281,-1732,-1209,3583,528,-64,341,
251,7,10,2023,15,7,37,291,-1777,-1191,3592,837,-51,519,
252,7,10,2023,15,7,37,301,-1772,-1146,3601,1277,-16,755,
253,7,10,2023,15,7,37,311,-1802,-882,3746,1630,71,1207,
254,7,10,2023,15,7,37,321,-1825,-766,3728,1546,316,2056,
255,7,10,2023,15,7,37,331,-1860,-570,3673,1327,331,2502,
256,7,10,2023,15,7,37,351,-1830,-787,3548,1257,465,2068,
257,7,10,2023,15,7,37,361,-1941,-468,3654,1421,280,1229,
258,7,10,2023,15,7,37,371,-1977,-1237,3508,1269,304,1198,
259,7,10,2023,15,7,37,381,-1860,-632,3375,1751,-14,1522,
260,7,10,2023,15,7,37,391,-1936,-406,3525,1609,-613,1166,
261,7,10,2023,15,7,37,401,-1877,-822,3456,1034,-799,1695,
262,7,10,2023,15,7,37,411,-1391,-31,3906,1057,-1164,1892,
263,7,10,2023,15,7,37,421,-1489,-346,3964,370,-430,1300,
264,7,10,2023,15,7,37,431,-1861,-653,3519,248,-6,1170,
265,7,10,2023,15,7,37,441,-1803,-593,3777,850,-226,698,
266,7,10,2023,15,7,37,451,-2101,-515,3586,800,-19,1177,
267,7,10,2023,15,7,37,461,-1869,-185,3804,698,-82,1439,
268,7,10,2023,15,7,37,471,-2023,-648,3649,497,125,1414,
269,7,10,2023,15,7,37,481,-1944,-381,3592,592,141,2021,
270,7,10,2023,15,7,37,491,-1438,-266,3564,649,51,1922,
271,7,10,2023,15,7,37,501,-1638,-344,3714,933,54,1345,
272,7,10,2023,15,7,37,511,-1394,-617,3651,1089,119,933,
273,7,10,2023,15,7,37,521,-1603,-209,3619,1299,117,928,
274,7,10,2023,15,7,37,531,-1628,-46,3721,1325,281,635,
275,7,10,2023,15,7,37,541,-1552,61,3667,1096,266,376,
276,7,10,2023,15,7,37,551,-1722,31,3691,949,236,128,
277,7,10,2023,15,7,37,561,-1640,70,3675,837,146,-51,
278,7,10,2023,15,7,37,571,-1709,112,3675,660,113,-158,
279,7,10,2023,15,7,37,581,-1832,189,3703,345,156,-138,
280,7,10,2023,15,7,37,591,-1820,248,3729,157,213,-448,
281,7,10,2023,15,7,37,601,-1795,-127,3717,-195,291,-541,
282,7,10,2023,15,7,37,611,-1991,373,3657,-596,300,-310,
283,7,10,2023,15,7,37,621,-2017,38,3752,-1091,351,-547,
284,7,10,2023,15,7,37,631,-1962,-249,3622,-1606,397,-252,
285,7,10,2023,15,7,37,641,-1585,-984,3533,-1612,446,55,
286,7,10,2023,15,7,37,651,-1476,-1010,3522,-689,293,157,
287,7,10,2023,15,7,37,661,-1862,-170,3719,274,192,37,
288,7,10,2023,15,7,37,671,-1948,-32,3720,379,196,-45,
289,7,10,2023,15,7,37,681,-1929,-130,3701,297,140,-87,
290,7,10,2023,15,7,37,691,-1875,-76,3718,107,81,-87,
291,7,10,2023,15,7,37,701,-1938,-19,3653,-118,72,-99,
292,7,10,2023,15,7,37,711,-1905,216,3735,-188,84,-591,
293,7,10,2023,15,7,37,721,-1778,-334,3703,-485,123,-971,
294,7,10,2023,15,7,37,731,-1757,19,3792,-731,161,-864,
295,7,10,2023,15,7,37,741,-1770,-245,3819,-1106,224,-995,
296,7,10,2023,15,7,37,751,-1639,-470,4108,-1434,299,-757,
297,7,10,2023,15,7,37,761,-1435,-914,4165,-1550,1194,-345,
298,7,10,2023,15,7,37,771,-2377,-455,2767,-1046,1761,96,
299,7,10,2023,15,7,37,781,-2176,-466,3358,-1172,-344,70,
300,7,10,2023,15,7,37,791,-1056,-610,3928,-1094,-1022,8,
301,7,10,2023,15,7,37,801,-1741,-614,3414,-690,842,-64,
302,7,10,2023,15,7,37,811,-3249,-449,3025,-251,1102,-36,
303,7,10,2023,15,7,37,821,-2044,-530,3432,-52,-481,-2,
304,7,10,2023,15,7,37,831,-1465,-359,4297,2,-526,50,
305,7,10,2023,15,7,37,841,-2083,-499,3337,-26,762,4,
306,7,10,2023,15,7,37,851,-2201,-431,3181,-8,119,30,
307,7,10,2023,15,7,37,861,-1644,-445,4077,-31,-564,27,
308,7,10,2023,15,7,37,871,-1889,-410,3629,-21,406,20,
309,7,10,2023,15,7,37,881,-2185,-473,3163,-45,340,9,
310,7,10,2023,15,7,37,891,-1780,-433,3866,-37,-433,22,
311,7,10,2023,15,7,37,901,-1799,-395,3797,-35,150,10,
312,7,10,2023,15,7,37,911,-2114,-452,3250,-63,429,-5,
313,7,10,2023,15,7,37,921,-1847,-469,3690,-66,-227,4,
314,7,10,2023,15,7,37,931,-1764,-403,3856,-62,37,3,
315,7,10,2023,15,7,37,941,-2114,-421,3357,-77,466,-16,
316,7,10,2023,15,7,37,951,-2010,-440,3527,-83,-18,-15,
317,7,10,2023,15,7,37,961,-1813,-434,3799,-85,-56,-20,
318,7,10,2023,15,7,37,971,-2043,-490,3454,-95,354,-27,
319,7,10,2023,15,7,37,981,-2048,-516,3434,-72,88,-11,
320,7,10,2023,15,7,37,991,-1894,-479,3715,-49,-113,2,
321,7,10,2023,15,7,38,1,-2002,-431,3554,-41,192,3,
322,7,10,2023,15,7,38,11,-2038,-469,3458,-44,101,0,
323,7,10,2023,15,7,38,21,-1912,-469,3691,-38,-107,0,
324,7,10,2023,15,7,38,31,-1958,-408,3629,-34,106,4,
325,7,10,2023,15,7,38,41,-2046,-397,3501,-47,139,-8,
326,7,10,2023,15,7,38,51,-1924,-424,3638,-73,-37,-27,
327,7,10,2023,15,7,38,61,-1904,-438,3640,-84,74,-32,
328,7,10,2023,15,7,38,71,-1969,-471,3504,-85,175,-33,
329,7,10,2023,15,7,38,81,-1948,-453,3592,-71,39,-23,
330,7,10,2023,15,7,38,91,-1958,-382,3647,-66,70,-19,
331,7,10,2023,15,7,38,101,-2023,-320,3540,-74,166,-37,
332,7,10,2023,15,7,38,111,-2024,-465,3523,-117,85,-79,
333,7,10,2023,15,7,38,121,-1957,-583,3565,-123,39,-78,
334,7,10,2023,15,7,38,131,-1931,-600,3531,-94,91,-43,
335,7,10,2023,15,7,38,141,-1918,-541,3554,-53,72,-5,
336,7,10,2023,15,7,38,151,-1931,-496,3593,-43,75,7,
337,7,10,2023,15,7,38,161,-2034,-466,3550,-41,143,6,
338,7,10,2023,15,7,38,171,-1991,-521,3519,-49,106,-6,
339,7,10,2023,15,7,38,181,-1929,-570,3579,-43,44,0,
340,7,10,2023,15,7,38,191,-1935,-557,3570,-22,94,19,
341,7,10,2023,15,7,38,211,-1958,-475,3588,-1,102,42,
342,7,10,2023,15,7,38,221,-2053,-497,3547,-3,175,34,
343,7,10,2023,15,7,38,231,-2067,-494,3499,5,152,33,
344,7,10,2023,15,7,38,241,-2010,-511,3567,3,61,36,
345,7,10,2023,15,7,38,251,-1985,-488,3577,8,88,40,
346,7,10,2023,15,7,38,261,-1967,-533,3542,-5,127,36,
347,7,10,2023,15,7,38,271,-2000,-502,3567,-5,97,45,
348,7,10,2023,15,7,38,281,-2001,-454,3555,-3,119,52,
349,7,10,2023,15,7,38,291,-1956,-454,3552,-8,113,50,
350,7,10,2023,15,7,38,301,-2006,-445,3570,-9,106,49,
351,7,10,2023,15,7,38,311,-2125,-324,3522,10,147,60,
352,7,10,2023,15,7,38,321,-2103,-387,3524,-21,77,19,
353,7,10,2023,15,7,38,331,-1998,-433,3605,-50,16,-1,
354,7,10,2023,15,7,38,341,-1943,-466,3586,-53,103,-2,
355,7,10,2023,15,7,38,351,-1950,-437,3566,-48,140,0,
356,7,10,2023,15,7,38,361,-1940,-453,3593,-74,134,-14,
357,7,10,2023,15,7,38,371,-2021,-396,3554,-93,208,-25,
358,7,10,2023,15,7,38,381,-2069,-574,3497,-125,219,-44,
359,7,10,2023,15,7,38,391,-2079,-638,3495,-97,143,-16,
360,7,10,2023,15,7,38,401,-2060,-572,3491,-35,127,21,
361,7,10,2023,15,7,38,411,-1961,-517,3544,21,85,52,
362,7,10,2023,15,7,38,421,-1917,-529,3615,29,90,57,
363,7,10,2023,15,7,38,431,-2025,-453,3556,44,217,73,
364,7,10,2023,15,7,38,441,-2138,-465,3476,34,219,61,
365,7,10,2023,15,7,38,451,-2123,-494,3502,25,129,48,
366,7,10,2023,15,7,38,461,-2120,-575,3504,23,128,42,
367,7,10,2023,15,7,38,471,-2133,-544,3450,55,123,63,
368,7,10,2023,15,7,38,481,-2111,-435,3507,79,14,79,
369,7,10,2023,15,7,38,491,-2132,-381,3549,61,-9,62,
370,7,10,2023,15,7,38,501,-2124,-372,3518,46,23,36,
371,7,10,2023,15,7,38,511,-2052,-465,3553,13,-43,1,
372,7,10,2023,15,7,38,521,-2048,-516,3554,7,-14,-6,
373,7,10,2023,15,7,38,531,-2104,-466,3466,34,41,9,
374,7,10,2023,15,7,38,541,-2000,-438,3517,36,-51,9,
375,7,10,2023,15,7,38,551,-1938,-506,3614,11,-56,-3,
376,7,10,2023,15,7,38,561,-2016,-516,3517,15,91,13,
377,7,10,2023,15,7,38,571,-2044,-479,3499,29,68,26,
378,7,10,2023,15,7,38,581,-2020,-454,3590,25,11,27,
379,7,10,2023,15,7,38,591,-2075,-488,3513,17,118,19,
380,7,10,2023,15,7,38,601,-2091,-452,3482,26,75,23,
381,7,10,2023,15,7,38,611,-2046,-475,3566,12,-10,6,
382,7,10,2023,15,7,38,621,-2076,-462,3522,13,79,10,
383,7,10,2023,15,7,38,631,-2066,-431,3480,15,72,5,
384,7,10,2023,15,7,38,641,-2003,-448,3574,-12,-10,-7,
385,7,10,2023,15,7,38,651,-2025,-535,3543,-38,91,-20,
386,7,10,2023,15,7,38,661,-2087,-471,3456,-15,133,-1,
387,7,10,2023,15,7,38,671,-2060,-486,3515,-16,29,-3,
388,7,10,2023,15,7,38,681,-2041,-472,3542,-19,57,7,
389,7,10,2023,15,7,38,691,-2069,-453,3483,-23,116,14,
390,7,10,2023,15,7,38,701,-2036,-470,3518,-30,62,9,
391,7,10,2023,15,7,38,711,-2028,-476,3567,-30,68,10,
392,7,10,2023,15,7,38,721,-2086,-550,3499,-32,132,5,
393,7,10,2023,15,7,38,731,-2118,-448,3492,-9,93,34,
394,7,10,2023,15,7,38,741,-2106,-442,3524,-20,44,22,
395,7,10,2023,15,7,38,751,-2114,-456,3483,-38,82,8,
396,7,10,2023,15,7,38,761,-2113,-470,3475,-53,54,8,
397,7,10,2023,15,7,38,771,-2096,-441,3529,-48,7,9,
398,7,10,2023,15,7,38,781,-2129,-423,3498,-33,18,0,
399,7,10,2023,15,7,38,791,-2109,-377,3518,-24,-26,-2,
400,7,10,2023,15,7,38,801,-2081,-424,3517,-42,-22,-34,
401,7,10,2023,15,7,38,811,-2054,-479,3521,-59,-21,-43,
402,7,10,2023,15,7,38,821,-2039,-534,3543,-63,-19,-35,
403,7,10,2023,15,7,38,831,-2051,-500,3524,-41,18,-9,
404,7,10,2023,15,7,38,841,-2051,-460,3532,-35,5,-3,
405,7,10,2023,15,7,38,851,-2043,-480,3529,-41,21,-9,
406,7,10,2023,15,7,38,861,-2039,-503,3500,-45,47,-10,
407,7,10,2023,15,7,38,871,-2031,-534,3528,-41,29,-1,
408,7,10,2023,15,7,38,881,-2074,-534,3522,-21,54,15,
409,7,10,2023,15,7,38,891,-2112,-486,3479,-2,58,33,
410,7,10,2023,15,7,38,901,-2124,-504,3491,13,12,31,
411,7,10,2023,15,7,38,911,-2098,-412,3508,27,-2,41,
412,7,10,2023,15,7,38,921,-2112,-491,3499,15,0,18,
413,7,10,2023,15,7,38,931,-2122,-420,3493,32,-14,26,
414,7,10,2023,15,7,38,941,-2093,-467,3525,15,-59,9,
415,7,10,2023,15,7,38,951,-2118,-428,3498,26,-28,16,
416,7,10,2023,15,7,38,961,-2109,-478,3481,8,-54,-5,
417,7,10,2023,15,7,38,971,-2081,-442,3542,7,-113,-1,
418,7,10,2023,15,7,38,981,-2115,-427,3496,-6,-51,-16,
419,7,10,2023,15,7,38,991,-2133,-400,3479,-19,-80,-28,
420,7,10,2023,15,7,39,1,-2066,-502,3534,-41,-136,-50,
421,7,10,2023,15,7,39,11,-2043,-501,3509,-24,-79,-35,
422,7,10,2023,15,7,39,21,-2028,-548,3493,3,-84,-29,
423,7,10,2023,15,7,39,31,-1993,-534,3539,29,-120,-6,
424,7,10,2023,15,7,39,41,-1991,-484,3518,40,-69,8,
425,7,10,2023,15,7,39,51,-1990,-477,3524,37,-56,9,
426,7,10,2023,15,7,39,71,-2002,-507,3529,24,7,14,
427,7,10,2023,15,7,39,81,-1995,-518,3520,29,24,25,
428,7,10,2023,15,7,39,91,-2012,-513,3573,32,9,37,
429,7,10,2023,15,7,39,101,-2050,-441,3549,36,73,44,
430,7,10,2023,15,7,39,111,-2080,-438,3513,26,72,29,
431,7,10,2023,15,7,39,121,-2042,-474,3536,15,45,21,
432,7,10,2023,15,7,39,131,-2046,-487,3521,15,84,25,
433,7,10,2023,15,7,39,141,-2067,-502,3504,21,85,28,
434,7,10,2023,15,7,39,151,-2061,-454,3525,33,55,39,
435,7,10,2023,15,7,39,161,-2085,-413,3524,32,65,39,
436,7,10,2023,15,7,39,171,-2107,-410,3506,27,75,32,
437,7,10,2023,15,7,39,181,-2075,-448,3500,17,55,19,
438,7,10,2023,15,7,39,191,-2044,-457,3520,11,42,16,
439,7,10,2023,15,7,39,201,-2031,-450,3532,-1,68,13,
440,7,10,2023,15,7,39,211,-2072,-432,3541,-11,79,9,
441,7,10,2023,15,7,39,221,-2092,-418,3521,-21,85,0,
442,7,10,2023,15,7,39,231,-2105,-440,3521,-27,81,-11,
443,7,10,2023,15,7,39,241,-2097,-484,3508,-22,81,-14,
444,7,10,2023,15,7,39,251,-2094,-455,3495,-21,69,-8,
445,7,10,2023,15,7,39,261,-2099,-477,3488,-26,52,-18,
446,7,10,2023,15,7,39,271,-2068,-492,3477,-16,46,-10,
447,7,10,2023,15,7,39,281,-2063,-515,3506,-8,24,-5,
448,7,10,2023,15,7,39,291,-2096,-482,3499,6,40,10,
449,7,10,2023,15,7,39,301,-2103,-465,3474,11,38,14,
450,7,10,2023,15,7,39,311,-2084,-456,3506,11,-1,10,
451,7,10,2023,15,7,39,321,-2071,-455,3521,6,13,3,
452,7,10,2023,15,7,39,331,-2055,-464,3512,2,23,-1,
453,7,10,2023,15,7,39,341,-2034,-470,3540,-1,16,6,
454,7,10,2023,15,7,39,351,-2057,-460,3544,-5,44,13,
455,7,10,2023,15,7,39,361,-2098,-448,3509,-5,71,13,
456,7,10,2023,15,7,39,371,-2108,-456,3507,-10,47,9,
457,7,10,2023,15,7,39,381,-2103,-437,3514,-12,33,5,
458,7,10,2023,15,7,39,391,-2097,-463,3495,-15,44,-1,
459,7,10,2023,15,7,39,401,-2094,-452,3497,-16,22,0,
460,7,10,2023,15,7,39,411,-2066,-473,3509,-19,15,-5,
461,7,10,2023,15,7,39,421,-2079,-499,3501,-12,37,-2,
462,7,10,2023,15,7,39,431,-2093,-460,3502,3,31,9,
463,7,10,2023,15,7,39,441,-2106,-436,3521,1,19,6,
464,7,10,2023,15,7,39,451,-2117,-416,3505,-2,29,-3,
465,7,10,2023,15,7,39,461,-2107,-450,3494,-16,15,-19,
466,7,10,2023,15,7,39,471,-2082,-460,3512,-16,-2,-19,
467,7,10,2023,15,7,39,481,-2078,-493,3509,-17,11,-26,
468,7,10,2023,15,7,39,491,-2080,-480,3503,-6,18,-12,
469,7,10,2023,15,7,39,501,-2080,-481,3516,-7,6,-5,
470,7,10,2023,15,7,39,511,-2084,-474,3521,-3,18,1,
471,7,10,2023,15,7,39,521,-2087,-471,3503,2,24,6,
472,7,10,2023,15,7,39,531,-2076,-446,3511,5,10,9,
473,7,10,2023,15,7,39,541,-2085,-429,3513,-1,20,5,
474,7,10,2023,15,7,39,551,-2100,-419,3502,-9,27,-1,
475,7,10,2023,15,7,39,561,-2089,-457,3504,-21,13,-19,
476,7,10,2023,15,7,39,571,-2095,-446,3518,-26,17,-23,
477,7,10,2023,15,7,39,581,-2101,-476,3497,-30,30,-28,
478,7,10,2023,15,7,39,591,-2112,-452,3496,-28,17,-25,
479,7,10,2023,15,7,39,601,-2099,-470,3501,-34,2,-33,
480,7,10,2023,15,7,39,611,-2113,-448,3509,-44,0,-37,
481,7,10,2023,15,7,39,621,-2114,-433,3507,-59,-12,-44,
482,7,10,2023,15,7,39,631,-2104,-438,3511,-84,-20,-66,
483,7,10,2023,15,7,39,641,-2089,-462,3510,-95,-12,-79,
484,7,10,2023,15,7,39,651,-2074,-490,3494,-95,-8,-81,
485,7,10,2023,15,7,39,661,-2051,-501,3497,-79,-21,-67,
486,7,10,2023,15,7,39,671,-2067,-527,3505,-59,-8,-55,
487,7,10,2023,15,7,39,681,-2103,-498,3493,-34,3,-35,
488,7,10,2023,15,7,39,691,-2104,-504,3490,-28,-24,-32,
489,7,10,2023,15,7,39,701,-2107,-497,3499,-16,-33,-19,
490,7,10,2023,15,7,39,711,-2103,-505,3491,-8,-29,-15,
491,7,10,2023,15,7,39,721,-2093,-478,3495,-4,-61,-10,
492,7,10,2023,15,7,39,731,-2088,-457,3521,0,-68,-4,
493,7,10,2023,15,7,39,741,-2089,-457,3512,-11,-45,-15,
494,7,10,2023,15,7,39,751,-2086,-465,3520,-15,-61,-23,
495,7,10,2023,15,7,39,761,-2075,-483,3536,-17,-62,-25,
496,7,10,2023,15,7,39,771,-2083,-476,3516,-14,-44,-20,
497,7,10,2023,15,7,39,781,-2084,-462,3519,-16,-52,-23,
498,7,10,2023,15,7,39,791,-2073,-464,3533,-20,-57,-32,
499,7,10,2023,15,7,39,801,-2083,-459,3516,-25,-42,-40,
500,7,10,2023,15,7,39,811,-2087,-475,3506,-30,-46,-44,
501,7,10,2023,15,7,39,821,-2086,-492,3511,-28,-55,-49,
502,7,10,2023,15,7,39,831,-2082,-495,3491,-21,-53,-44,
503,7,10,2023,15,7,39,841,-2054,-509,3494,-18,-71,-44,
504,7,10,2023,15,7,39,851,-2048,-511,3513,-10,-76,-33,
505,7,10,2023,15,7,39,861,-2055,-516,3506,-10,-58,-27,
506,7,10,2023,15,7,39,871,-2060,-503,3524,0,-71,-21,
507,7,10,2023,15,7,39,881,-2063,-495,3525,4,-69,-20,
508,7,10,2023,15,7,39,891,-2069,-462,3517,6,-62,-16,
509,7,10,2023,15,7,39,901,-2056,-492,3519,6,-73,-28,
510,7,10,2023,15,7,39,911,-2054,-502,3529,14,-70,-21,
511,7,10,2023,15,7,39,931,-2034,-508,3519,32,-59,-4,
512,7,10,2023,15,7,39,941,-2034,-530,3529,31,-55,2,
513,7,10,2023,15,7,39,951,-2039,-523,3510,37,-40,13,
514,7,10,2023,15,7,39,961,-2041,-535,3524,52,-57,32,
515,7,10,2023,15,7,39,971,-2043,-535,3530,73,-58,50,
516,7,10,2023,15,7,39,981,-2020,-547,3512,91,-49,67,
517,7,10,2023,15,7,39,991,-2035,-493,3535,104,-65,85,
518,7,10,2023,15,7,40,1,-2047,-450,3527,96,-41,83,
519,7,10,2023,15,7,40,11,-2062,-457,3519,87,-38,73,
520,7,10,2023,15,7,40,21,-2059,-464,3521,87,-55,69,
521,7,10,2023,15,7,40,31,-2054,-409,3534,83,-49,68,
522,7,10,2023,15,7,40,41,-2057,-373,3533,55,-34,39,
523,7,10,2023,15,7,40,51,-2054,-386,3546,25,-34,12,
524,7,10,2023,15,7,40,61,-2044,-462,3542,2,-25,-9,
525,7,10,2023,15,7,40,71,-2064,-443,3535,0,-19,-4,
526,7,10,2023,15,7,40,81,-2067,-440,3535,0,-37,-13,
527,7,10,2023,15,7,40,91,-2059,-434,3534,-5,-33,-17,
528,7,10,2023,15,7,40,101,-2039,-471,3530,-10,-38,-21,
529,7,10,2023,15,7,40,111,-2037,-490,3536,-6,-48,-16,
530,7,10,2023,15,7,40,121,-2040,-468,3534,1,-34,-14,
531,7,10,2023,15,7,40,131,-2045,-477,3534,1,-43,-16,
532,7,10,2023,15,7,40,141,-2016,-460,3544,3,-45,-11,
533,7,10,2023,15,7,40,151,-1989,-477,3552,-2,-45,-13,
534,7,10,2023,15,7,40,161,-2009,-461,3542,-1,-26,-9,
535,7,10,2023,15,7,40,171,-2017,-471,3532,-3,-2,-5,
536,7,10,2023,15,7,40,181,-2030,-458,3550,0,-12,1,
537,7,10,2023,15,7,40,191,-2024,-466,3545,-3,0,-3,
538,7,10,2023,15,7,40,201,-2047,-458,3530,-3,5,0,
539,7,10,2023,15,7,40,211,-2043,-451,3532,-5,-7,0,
540,7,10,2023,15,7,40,221,-2032,-466,3540,-6,-9,-1,
541,7,10,2023,15,7,40,231,-2037,-456,3539,-10,0,-3,
542,7,10,2023,15,7,40,241,-2040,-468,3532,-13,7,-8,
543,7,10,2023,15,7,40,251,-2041,-444,3543,-13,-3,-1,
544,7,10,2023,15,7,40,261,-2040,-445,3542,-17,2,-10,
545,7,10,2023,15,7,40,271,-2050,-446,3539,-27,7,-15,
546,7,10,2023,15,7,40,281,-2034,-448,3541,-28,-8,-20,
547,7,10,2023,15,7,40,291,-2025,-458,3543,-32,-5,-25,
548,7,10,2023,15,7,40,301,-2028,-484,3522,-36,6,-29,
549,7,10,2023,15,7,40,311,-2025,-480,3537,-31,-5,-21,
550,7,10,2023,15,7,40,321,-2037,-466,3547,-23,-8,-13,
551,7,10,2023,15,7,40,331,-2048,-472,3530,-23,7,-18,
552,7,10,2023,15,7,40,341,-2030,-477,3540,-24,-11,-15,
553,7,10,2023,15,7,40,351,-2019,-475,3551,-21,-8,-13,
554,7,10,2023,15,7,40,361,-2027,-459,3534,-16,2,-14,
555,7,10,2023,15,7,40,371,-2019,-489,3524,-21,0,-16,
556,7,10,2023,15,7,40,381,-2027,-456,3542,-14,-6,-9,
557,7,10,2023,15,7,40,391,-2039,-462,3543,-21,8,-13,
558,7,10,2023,15,7,40,401,-2039,-460,3529,-24,12,-16,
559,7,10,2023,15,7,40,411,-2020,-481,3538,-27,0,-20,
560,7,10,2023,15,7,40,421,-2021,-473,3534,-21,13,-11,
561,7,10,2023,15,7,40,431,-2030,-482,3532,-22,21,-11,
562,7,10,2023,15,7,40,441,-2018,-487,3545,-22,8,-13,
563,7,10,2023,15,7,40,451,-2042,-474,3550,-14,17,-9,
564,7,10,2023,15,7,40,461,-2042,-473,3521,-4,29,-3,
565,7,10,2023,15,7,40,471,-2040,-475,3532,-3,1,-2,
566,7,10,2023,15,7,40,481,-2032,-481,3541,-5,4,-5,
567,7,10,2023,15,7,40,491,-2038,-472,3523,-2,17,-3,
568,7,10,2023,15,7,40,501,-2033,-469,3542,-5,-2,-3,
569,7,10,2023,15,7,40,511,-2035,-464,3545,-6,6,2,
570,7,10,2023,15,7,40,521,-2037,-476,3533,-8,21,-2,
571,7,10,2023,15,7,40,531,-2032,-484,3534,-5,7,1,
572,7,10,2023,15,7,40,541,-2029,-480,3534,-3,8,2,
573,7,10,2023,15,7,40,551,-2025,-482,3520,-3,20,-1,
574,7,10,2023,15,7,40,561,-2007,-477,3535,1,7,0,
575,7,10,2023,15,7,40,571,-2023,-460,3543,0,12,4,
576,7,10,2023,15,7,40,581,-2039,-448,3525,-4,32,6,
577,7,10,2023,15,7,40,591,-2021,-493,3540,-11,14,-5,
578,7,10,2023,15,7,40,601,-2025,-478,3552,-6,23,3,
579,7,10,2023,15,7,40,611,-2026,-496,3521,-5,41,3,
580,7,10,2023,15,7,40,621,-2009,-491,3529,5,17,12,
581,7,10,2023,15,7,40,631,-2024,-493,3553,12,28,25,
582,7,10,2023,15,7,40,641,-2028,-474,3530,16,54,32,
583,7,10,2023,15,7,40,651,-2036,-473,3543,24,22,32,
584,7,10,2023,15,7,40,661,-2022,-506,3544,21,36,34,
585,7,10,2023,15,7,40,671,-2038,-483,3520,37,54,49,
586,7,10,2023,15,7,40,681,-2040,-461,3537,40,30,52,
587,7,10,2023,15,7,40,691,-2026,-456,3542,35,34,47,
588,7,10,2023,15,7,40,701,-2040,-452,3528,27,48,40,
589,7,10,2023,15,7,40,711,-2033,-450,3535,17,47,32,
590,7,10,2023,15,7,40,721,-2026,-432,3548,8,52,29,
591,7,10,2023,15,7,40,731,-2042,-447,3549,1,65,20,
592,7,10,2023,15,7,40,741,-2054,-443,3531,0,70,17,
593,7,10,2023,15,7,40,751,-2052,-459,3539,-7,59,14,
594,7,10,2023,15,7,40,761,-2041,-450,3540,-7,68,15,
595,7,10,2023,15,7,40,771,-2042,-473,3531,-9,71,10,
596,7,10,2023,15,7,40,791,-2057,-479,3524,-7,71,8,
597,7,10,2023,15,7,40,801,-2054,-487,3530,-2,63,16,
598,7,10,2023,15,7,40,811,-2065,-472,3519,7,72,25,
599,7,10,2023,15,7,40,821,-2054,-462,3516,7,65,25,
600,7,10,2023,15,7,40,831,-2043,-480,3528,12,47,27,
601,7,10,2023,15,7,40,841,-2046,-481,3519,18,67,35,
602,7,10,2023,15,7,40,851,-2067,-431,3521,22,59,39,
603,7,10,2023,15,7,40,861,-2067,-453,3530,17,50,30,
604,7,10,2023,15,7,40,871,-2081,-442,3518,18,64,31,
605,7,10,2023,15,7,40,881,-2085,-440,3521,15,50,25,
606,7,10,2023,15,7,40,891,-2066,-421,3533,11,43,21,
607,7,10,2023,15,7,40,901,-2078,-447,3527,-1,52,9,
608,7,10,2023,15,7,40,911,-2090,-454,3518,3,51,11,
609,7,10,2023,15,7,40,921,-2088,-441,3517,2,39,14,
610,7,10,2023,15,7,40,931,-2078,-462,3518,-3,30,2,
611,7,10,2023,15,7,40,941,-2068,-457,3508,1,28,8,
612,7,10,2023,15,7,40,951,-2051,-476,3517,3,17,8,
613,7,10,2023,15,7,40,961,-2058,-461,3523,7,20,16,
614,7,10,2023,15,7,40,971,-2067,-455,3509,14,26,23,
615,7,10,2023,15,7,40,981,-2063,-471,3517,20,19,19,
616,7,10,2023,15,7,40,991,-2073,-450,3528,26,25,28,
617,7,10,2023,15,7,41,1,-2080,-446,3517,23,22,26,
618,7,10,2023,15,7,41,11,-2077,-436,3521,27,11,23,
619,7,10,2023,15,7,41,21,-2080,-429,3536,26,9,23,
620,7,10,2023,15,7,41,31,-2083,-427,3518,18,18,13,
621,7,10,2023,15,7,41,41,-2071,-445,3513,16,12,6,
622,7,10,2023,15,7,41,51,-2054,-462,3522,17,0,11,
623,7,10,2023,15,7,41,61,-2057,-451,3522,22,4,20,
624,7,10,2023,15,7,41,71,-2067,-470,3511,17,16,15,
625,7,10,2023,15,7,41,81,-2074,-447,3516,23,15,20,
626,7,10,2023,15,7,41,91,-2074,-435,3524,22,11,18,
627,7,10,2023,15,7,41,101,-2079,-429,3522,16,8,13,
628,7,10,2023,15,7,41,111,-2066,-450,3518,1,16,7,
629,7,10,2023,15,7,41,121,-2058,-420,3526,2,14,10,
630,7,10,2023,15,7,41,131,-2073,-409,3542,-7,16,3,
631,7,10,2023,15,7,41,141,-2083,-435,3520,-15,39,-5,
632,7,10,2023,15,7,41,151,-2086,-429,3515,-18,20,-8,
633,7,10,2023,15,7,41,161,-2077,-425,3523,-16,12,-13,
634,7,10,2023,15,7,41,171,-2075,-443,3503,-21,29,-19,
635,7,10,2023,15,7,41,181,-2064,-443,3520,-21,7,-17,
636,7,10,2023,15,7,41,191,-2052,-447,3531,-21,8,-16,
637,7,10,2023,15,7,41,201,-2072,-457,3510,-20,34,-16,
638,7,10,2023,15,7,41,211,-2067,-459,3505,-20,18,-13,
639,7,10,2023,15,7,41,221,-2067,-456,3519,-19,8,-7,
640,7,10,2023,15,7,41,231,-2079,-457,3497,-10,31,-1,
641,7,10,2023,15,7,41,241,-2078,-445,3498,0,8,3,
642,7,10,2023,15,7,41,251,-2066,-453,3536,-4,-5,-3,
643,7,10,2023,15,7,41,261,-2078,-444,3514,-1,20,-3,
644,7,10,2023,15,7,41,271,-2078,-436,3514,2,2,-1,
645,7,10,2023,15,7,41,281,-2075,-437,3541,-1,-9,-7,
646,7,10,2023,15,7,41,291,-2080,-443,3509,-6,14,-8,
647,7,10,2023,15,7,41,301,-2079,-437,3509,-6,-6,-5,
648,7,10,2023,15,7,41,311,-2067,-445,3531,-9,-17,-9,
649,7,10,2023,15,7,41,321,-2073,-457,3512,-4,3,-6,
650,7,10,2023,15,7,41,331,-2074,-450,3512,-3,-5,-5,
651,7,10,2023,15,7,41,341,-2062,-450,3525,-2,-14,-5,
652,7,10,2023,15,7,41,351,-2072,-446,3515,-4,2,-5,
653,7,10,2023,15,7,41,361,-2069,-452,3512,-3,-6,-4,
654,7,10,2023,15,7,41,371,-2074,-448,3530,1,-9,0,
655,7,10,2023,15,7,41,381,-2073,-445,3518,4,2,4,
656,7,10,2023,15,7,41,391,-2068,-443,3515,2,-6,2,
657,7,10,2023,15,7,41,401,-2070,-433,3528,-2,-9,-3,
658,7,10,2023,15,7,41,411,-2066,-449,3523,-7,4,-5,
659,7,10,2023,15,7,41,421,-2071,-424,3522,-5,-4,-4,
660,7,10,2023,15,7,41,431,-2062,-438,3524,-12,-2,-14,
661,7,10,2023,15,7,41,441,-2065,-452,3514,-13,11,-17,
662,7,10,2023,15,7,41,451,-2075,-432,3522,-11,3,-11,
663,7,10,2023,15,7,41,461,-2070,-450,3521,-19,3,-19,
664,7,10,2023,15,7,41,471,-2064,-457,3510,-18,9,-19,
665,7,10,2023,15,7,41,481,-2064,-444,3530,-9,-7,-7,
666,7,10,2023,15,7,41,491,-2066,-458,3519,-10,1,-10,
667,7,10,2023,15,7,41,501,-2070,-450,3508,-9,8,-9,
668,7,10,2023,15,7,41,511,-2067,-461,3519,-3,-4,-3,
669,7,10,2023,15,7,41,521,-2070,-436,3523,-3,2,0,
670,7,10,2023,15,7,41,531,-2074,-433,3520,-8,1,-4,
671,7,10,2023,15,7,41,541,-2060,-443,3525,-8,-9,-4,
672,7,10,2023,15,7,41,551,-2063,-445,3518,-6,2,0,
673,7,10,2023,15,7,41,561,-2077,-448,3516,1,4,1,
674,7,10,2023,15,7,41,571,-2062,-450,3516,-1,-11,-3,
675,7,10,2023,15,7,41,581,-2050,-454,3520,-1,0,-5,
676,7,10,2023,15,7,41,591,-2066,-438,3511,3,8,-3,
677,7,10,2023,15,7,41,601,-2067,-466,3517,-6,3,-9,
678,7,10,2023,15,7,41,611,-2060,-439,3525,3,11,1,
679,7,10,2023,15,7,41,621,-2073,-456,3526,-1,12,-5,
680,7,10,2023,15,7,41,631,-2064,-441,3531,1,13,-2,
681,7,10,2023,15,7,41,651,-2072,-440,3526,2,13,0,
682,7,10,2023,15,7,41,661,-2070,-447,3521,-2,20,-5,
683,7,10,2023,15,7,41,671,-2070,-456,3515,1,19,0,
684,7,10,2023,15,7,41,681,-2070,-445,3517,2,11,5,
685,7,10,2023,15,7,41,691,-2064,-457,3524,2,14,3,
686,7,10,2023,15,7,41,701,-2070,-439,3521,7,15,6,
687,7,10,2023,15,7,41,711,-2074,-428,3522,4,10,4,
688,7,10,2023,15,7,41,721,-2062,-438,3512,-3,19,-1,
689,7,10,2023,15,7,41,731,-2060,-438,3514,-7,20,0,
690,7,10,2023,15,7,41,741,-2068,-443,3522,-7,18,-3,
691,7,10,2023,15,7,41,751,-2063,-453,3515,-6,28,1,
692,7,10,2023,15,7,41,761,-2067,-457,3519,-6,26,-1,
693,7,10,2023,15,7,41,771,-2071,-442,3527,-3,22,3,
694,7,10,2023,15,7,41,781,-2072,-444,3509,-5,31,2,
695,7,10,2023,15,7,41,791,-2076,-430,3521,-7,21,2,
696,7,10,2023,15,7,41,801,-2086,-429,3529,-7,20,-2,
697,7,10,2023,15,7,41,811,-2085,-439,3515,-11,27,-10,
698,7,10,2023,15,7,41,821,-2083,-451,3520,-10,15,-9,
699,7,10,2023,15,7,41,831,-2078,-447,3518,-8,18,-6,
700,7,10,2023,15,7,41,841,-2082,-444,3503,-7,16,-2,
701,7,10,2023,15,7,41,851,-2069,-448,3513,-4,5,-5,
702,7,10,2023,15,7,41,861,-2062,-451,3519,-2,2,-3,
703,7,10,2023,15,7,41,871,-2059,-457,3508,-1,9,-2,
704,7,10,2023,15,7,41,881,-2058,-457,3514,2,11,3,
705,7,10,2023,15,7,41,891,-2067,-431,3522,3,19,5,
706,7,10,2023,15,7,41,901,-2059,-447,3527,-2,20,-3,
707,7,10,2023,15,7,41,911,-2075,-432,3537,-6,23,0,
708,7,10,2023,15,7,41,921,-2072,-441,3521,-11,38,-6,
709,7,10,2023,15,7,41,931,-2074,-435,3525,-16,33,-7,
710,7,10,2023,15,7,41,941,-2080,-443,3524,-20,35,-9,
711,7,10,2023,15,7,41,951,-2083,-438,3500,-19,41,-9,
712,7,10,2023,15,7,41,961,-2080,-451,3517,-17,22,-11,
713,7,10,2023,15,7,41,971,-2080,-451,3506,-13,25,-11,
714,7,10,2023,15,7,41,981,-2094,-451,3500,-9,28,-5,
715,7,10,2023,15,7,41,991,-2080,-457,3506,-7,12,-5,
716,7,10,2023,15,7,42,1,-2086,-447,3507,-4,14,-1,
717,7,10,2023,15,7,42,11,-2088,-448,3498,-3,16,-3,
718,7,10,2023,15,7,42,21,-2079,-434,3512,2,0,-2,
719,7,10,2023,15,7,42,31,-2079,-444,3524,1,0,-6,
720,7,10,2023,15,7,42,41,-2088,-427,3512,1,11,-6,
721,7,10,2023,15,7,42,51,-2081,-438,3513,-4,1,-13,
722,7,10,2023,15,7,42,61,-2076,-437,3520,-3,-1,-12,
723,7,10,2023,15,7,42,71,-2085,-446,3511,-7,4,-15,
724,7,10,2023,15,7,42,81,-2070,-446,3513,-8,-3,-10,
725,7,10,2023,15,7,42,91,-2059,-463,3521,-8,-7,-13,
726,7,10,2023,15,7,42,101,-2073,-455,3514,0,5,-4,
727,7,10,2023,15,7,42,111,-2075,-446,3502,-4,9,-4,
728,7,10,2023,15,7,42,121,-2065,-452,3517,-6,-2,-5,
729,7,10,2023,15,7,42,131,-2071,-451,3521,-2,13,-3,
730,7,10,2023,15,7,42,141,-2085,-438,3503,-2,20,-2,
731,7,10,2023,15,7,42,151,-2074,-434,3518,-4,-3,-5,
732,7,10,2023,15,7,42,161,-2069,-445,3526,-7,8,-5,
733,7,10,2023,15,7,42,171,-2093,-446,3503,-4,24,-5,
734,7,10,2023,15,7,42,181,-2085,-424,3515,-6,2,-6,
735,7,10,2023,15,7,42,191,-2080,-444,3528,-11,-1,-13,
736,7,10,2023,15,7,42,201,-2095,-431,3487,-12,19,-13,
737,7,10,2023,15,7,42,211,-2081,-443,3497,-14,-7,-15,
738,7,10,2023,15,7,42,221,-2070,-444,3524,-12,-15,-13,
739,7,10,2023,15,7,42,231,-2084,-447,3499,-13,10,-20,
740,7,10,2023,15,7,42,241,-2087,-448,3506,-7,-10,-19,
741,7,10,2023,15,7,42,251,-2072,-452,3527,-8,-16,-19,
742,7,10,2023,15,7,42,261,-2078,-450,3514,-11,1,-21,
743,7,10,2023,15,7,42,271,-2082,-453,3509,-8,-8,-19,
744,7,10,2023,15,7,42,281,-2078,-455,3523,-8,-18,-19,
745,7,10,2023,15,7,42,291,-2084,-453,3507,-9,-6,-15,
746,7,10,2023,15,7,42,301,-2073,-446,3507,-6,-16,-14,
747,7,10,2023,15,7,42,311,-2067,-438,3525,-10,-22,-18,
748,7,10,2023,15,7,42,321,-2069,-453,3516,-20,-13,-20,
749,7,10,2023,15,7,42,331,-2071,-449,3518,-14,-9,-20,
750,7,10,2023,15,7,42,341,-2067,-442,3525,-18,-19,-24,
751,7,10,2023,15,7,42,351,-2068,-457,3522,-22,-8,-27,
752,7,10,2023,15,7,42,361,-2075,-450,3504,-21,-1,-23,
753,7,10,2023,15,7,42,371,-2076,-449,3522,-29,-19,-27,
754,7,10,2023,15,7,42,381,-2073,-448,3524,-27,-12,-30,
755,7,10,2023,15,7,42,391,-2073,-454,3509,-26,-1,-30,
756,7,10,2023,15,7,42,401,-2073,-459,3519,-27,-15,-32,
757,7,10,2023,15,7,42,411,-2076,-455,3517,-28,-14,-27,
758,7,10,2023,15,7,42,421,-2087,-446,3497,-25,0,-29,
759,7,10,2023,15,7,42,431,-2074,-459,3520,-23,-22,-32,
760,7,10,2023,15,7,42,441,-2068,-456,3526,-24,-17,-29,
761,7,10,2023,15,7,42,451,-2075,-451,3505,-28,-5,-25,
762,7,10,2023,15,7,42,461,-2067,-453,3517,-23,-22,-31,
763,7,10,2023,15,7,42,471,-2068,-442,3526,-21,-25,-31,
764,7,10,2023,15,7,42,481,-2075,-457,3521,-22,-10,-29,
765,7,10,2023,15,7,42,491,-2073,-452,3510,-20,-13,-28,
766,7,10,2023,15,7,42,511,-2060,-466,3527,-20,-20,-25,
767,7,10,2023,15,7,42,521,-2073,-468,3510,-18,-12,-27,
768,7,10,2023,15,7,42,531,-2065,-474,3521,-19,-25,-23,
769,7,10,2023,15,7,42,541,-2059,-456,3531,-14,-23,-22,
770,7,10,2023,15,7,42,551,-2059,-453,3519,-13,-5,-20,
771,7,10,2023,15,7,42,561,-2063,-463,3518,-18,-18,-21,
772,7,10,2023,15,7,42,571,-2044,-476,3524,-21,-20,-25,
773,7,10,2023,15,7,42,581,-2059,-447,3514,-18,-5,-20,
774,7,10,2023,15,7,42,591,-2071,-464,3514,-22,-10,-23,
775,7,10,2023,15,7,42,601,-2063,-452,3529,-22,-12,-23,
776,7,10,2023,15,7,42,611,-2056,-480,3518,-24,-2,-28,
777,7,10,2023,15,7,42,621,-2057,-455,3520,-23,-1,-25,
778,7,10,2023,15,7,42,631,-2055,-470,3529,-28,-2,-33,
779,7,10,2023,15,7,42,641,-2054,-483,3516,-26,8,-26,
780,7,10,2023,15,7,42,651,-2063,-492,3517,-22,7,-22,
781,7,10,2023,15,7,42,661,-2063,-474,3513,-12,-2,-12,
782,7,10,2023,15,7,42,671,-2074,-467,3511,-11,5,-12,
783,7,10,2023,15,7,42,681,-2068,-475,3511,-14,7,-15,
784,7,10,2023,15,7,42,691,-2067,-481,3516,-10,-4,-17,
785,7,10,2023,15,7,42,701,-2063,-480,3517,-9,2,-11,
786,7,10,2023,15,7,42,711,-2066,-467,3512,-3,1,-11,
787,7,10,2023,15,7,42,721,-2067,-475,3519,-2,-12,-13,
788,7,10,2023,15,7,42,731,-2064,-466,3521,-5,-11,-10,
789,7,10,2023,15,7,42,741,-2063,-474,3516,-6,-6,-15,
790,7,10,2023,15,7,42,751,-2071,-462,3531,-3,-13,-11,
791,7,10,2023,15,7,42,761,-2066,-468,3524,-6,-12,-14,
792,7,10,2023,15,7,42,771,-2048,-480,3515,-11,-7,-16,
793,7,10,2023,15,7,42,781,-2060,-473,3524,-11,-14,-15,
794,7,10,2023,15,7,42,791,-2062,-483,3523,-9,-4,-15,
795,7,10,2023,15,7,42,801,-2067,-469,3521,-7,-9,-12,
796,7,10,2023,15,7,42,811,-2064,-481,3527,-9,-11,-16,
797,7,10,2023,15,7,42,821,-2071,-478,3516,-6,-5,-12,
798,7,10,2023,15,7,42,831,-2066,-467,3521,-6,-10,-11,
799,7,10,2023,15,7,42,841,-2060,-473,3519,-9,-12,-16,
800,7,10,2023,15,7,42,851,-2059,-475,3511,-7,-12,-16,
801,7,10,2023,15,7,42,861,-2059,-469,3516,-8,-22,-18,
802,7,10,2023,15,7,42,871,-2060,-465,3529,-9,-18,-17,
803,7,10,2023,15,7,42,881,-2066,-451,3528,-12,-15,-21,
804,7,10,2023,15,7,42,891,-2049,-470,3527,-19,-24,-30,
805,7,10,2023,15,7,42,901,-2046,-487,3532,-21,-22,-30,
806,7,10,2023,15,7,42,911,-2053,-484,3526,-18,-14,-21,
807,7,10,2023,15,7,42,921,-2053,-483,3517,-12,-16,-19,
808,7,10,2023,15,7,42,931,-2042,-496,3524,-11,-19,-19,
809,7,10,2023,15,7,42,941,-2037,-495,3526,-11,-15,-16,
810,7,10,2023,15,7,42,951,-2047,-486,3523,-3,-15,-7,
811,7,10,2023,15,7,42,961,-2050,-478,3522,1,-13,-5,
812,7,10,2023,15,7,42,971,-2053,-460,3522,3,-15,-3,
813,7,10,2023,15,7,42,981,-2049,-468,3529,0,-12,-6,
814,7,10,2023,15,7,42,991,-2053,-469,3527,1,-1,-3,
815,7,10,2023,15,7,43,1,-2049,-470,3535,-4,-5,-7,
816,7,10,2023,15,7,43,11,-2047,-473,3532,-5,-5,-9,
817,7,10,2023,15,7,43,21,-2050,-483,3521,-3,6,-9,
818,7,10,2023,15,7,43,31,-2053,-463,3524,1,-3,-2,
819,7,10,2023,15,7,43,41,-2037,-475,3535,-7,-1,-7,
820,7,10,2023,15,7,43,51,-2051,-481,3524,-6,9,-7,
821,7,10,2023,15,7,43,61,-2047,-477,3525,0,-4,-5,
822,7,10,2023,15,7,43,71,-2053,-474,3533,-5,-4,-1,
823,7,10,2023,15,7,43,81,-2055,-475,3523,-5,13,0,
824,7,10,2023,15,7,43,91,-2038,-479,3518,-3,-2,-3,
825,7,10,2023,15,7,43,101,-2035,-473,3546,-4,-4,-1,
826,7,10,2023,15,7,43,111,-2052,-476,3522,-6,19,-6,
827,7,10,2023,15,7,43,121,-2045,-476,3525,-7,5,-4,
828,7,10,2023,15,7,43,131,-2043,-481,3531,-6,10,-3,
829,7,10,2023,15,7,43,141,-2066,-473,3514,0,29,0,
830,7,10,2023,15,7,43,151,-2056,-478,3519,1,11,3,
831,7,10,2023,15,7,43,161,-2037,-473,3536,1,-2,3,
832,7,10,2023,15,7,43,171,-2054,-473,3528,2,20,3,
833,7,10,2023,15,7,43,181,-2056,-457,3526,1,14,3,
834,7,10,2023,15,7,43,191,-2042,-463,3533,-3,8,2,
835,7,10,2023,15,7,43,201,-2054,-466,3524,-4,31,-1,
836,7,10,2023,15,7,43,211,-2058,-476,3517,-3,22,-1,
837,7,10,2023,15,7,43,221,-2049,-474,3532,-7,2,-1,
838,7,10,2023,15,7,43,231,-2049,-474,3520,-8,18,-6,
839,7,10,2023,15,7,43,241,-2055,-478,3515,-3,15,-3,
840,7,10,2023,15,7,43,251,-2047,-480,3527,0,7,-3,
841,7,10,2023,15,7,43,261,-2055,-458,3527,5,14,1,
842,7,10,2023,15,7,43,271,-2059,-485,3521,0,14,2,
843,7,10,2023,15,7,43,281,-2057,-464,3522,0,7,2,
844,7,10,2023,15,7,43,291,-2053,-461,3531,-3,6,-1,
845,7,10,2023,15,7,43,301,-2056,-469,3523,-1,17,1,
846,7,10,2023,15,7,43,311,-2054,-474,3525,-3,6,-3,
847,7,10,2023,15,7,43,321,-2053,-477,3533,-3,0,-5,
848,7,10,2023,15,7,43,331,-2054,-478,3521,-1,10,4,
849,7,10,2023,15,7,43,341,-2053,-479,3520,0,5,-3,
850,7,10,2023,15,7,43,351,-2051,-484,3528,2,0,-2,
851,7,10,2023,15,7,43,371,-2050,-480,3516,11,2,8,
852,7,10,2023,15,7,43,381,-2053,-484,3524,16,-1,11,
853,7,10,2023,15,7,43,391,-2051,-478,3522,16,7,14,
854,7,10,2023,15,7,43,401,-2059,-457,3527,20,-3,17,
855,7,10,2023,15,7,43,411,-2057,-460,3533,16,2,15,
856,7,10,2023,15,7,43,421,-2059,-449,3529,15,2,9,
857,7,10,2023,15,7,43,431,-2060,-459,3532,11,-4,8,
858,7,10,2023,15,7,43,441,-2056,-458,3528,3,2,2,
859,7,10,2023,15,7,43,451,-2055,-467,3525,3,6,-4,
860,7,10,2023,15,7,43,461,-2060,-469,3532,0,1,-4,
861,7,10,2023,15,7,43,471,-2056,-467,3531,-1,6,-3,
862,7,10,2023,15,7,43,481,-2050,-469,3522,1,11,-1,
863,7,10,2023,15,7,43,491,-2055,-472,3530,8,0,0,
864,7,10,2023,15,7,43,501,-2052,-488,3525,5,1,-3,
865,7,10,2023,15,7,43,511,-2061,-459,3513,6,6,6,
866,7,10,2023,15,7,43,521,-2057,-478,3522,1,0,1,
867,7,10,2023,15,7,43,531,-2054,-467,3532,6,-5,6,
868,7,10,2023,15,7,43,541,-2055,-483,3523,7,2,1,
869,7,10,2023,15,7,43,551,-2069,-445,3515,16,1,11,
870,7,10,2023,15,7,43,561,-2054,-473,3521,7,-7,2,
871,7,10,2023,15,7,43,571,-2050,-454,3522,12,-2,6,
872,7,10,2023,15,7,43,581,-2050,-465,3515,10,-4,4,
873,7,10,2023,15,7,43,591,-2059,-453,3528,9,-13,4,
874,7,10,2023,15,7,43,601,-2049,-462,3518,7,-8,0,
875,7,10,2023,15,7,43,611,-2052,-452,3517,14,-9,6,
876,7,10,2023,15,7,43,621,-2044,-461,3526,6,-14,2,
877,7,10,2023,15,7,43,631,-2051,-459,3535,5,-10,3,
878,7,10,2023,15,7,43,641,-2051,-452,3531,4,0,-1,
879,7,10,2023,15,7,43,651,-2056,-452,3528,1,-2,-7,
880,7,10,2023,15,7,43,661,-2055,-452,3530,-2,-2,-7,
881,7,10,2023,15,7,43,671,-2050,-464,3524,-8,1,-4,
882,7,10,2023,15,7,43,681,-2061,-451,3526,-2,-2,-6,
883,7,10,2023,15,7,43,691,-2056,-478,3532,-5,-6,-14,
884,7,10,2023,15,7,43,701,-2050,-462,3521,0,2,-3,
885,7,10,2023,15,7,43,711,-2050,-479,3520,4,-7,-1,
886,7,10,2023,15,7,43,721,-2058,-473,3526,11,-8,3,
887,7,10,2023,15,7,43,731,-2060,-475,3522,14,-4,3,
888,7,10,2023,15,7,43,741,-2067,-456,3525,18,-18,8,
889,7,10,2023,15,7,43,751,-2059,-468,3518,21,-23,9,
890,7,10,2023,15,7,43,761,-2040,-481,3524,29,-26,15,
891,7,10,2023,15,7,43,771,-2050,-442,3544,31,-38,22,
892,7,10,2023,15,7,43,781,-2056,-419,3532,23,-25,9,
893,7,10,2023,15,7,43,791,-2047,-432,3537,12,-24,-5,
894,7,10,2023,15,7,43,801,-2037,-456,3541,2,-29,-11,
895,7,10,2023,15,7,43,811,-2028,-449,3532,-2,-9,-7,
896,7,10,2023,15,7,43,821,-2027,-446,3530,-6,-22,-9,
897,7,10,2023,15,7,43,831,-2038,-442,3534,-4,-7,-8,
898,7,10,2023,15,7,43,841,-2050,-465,3523,-8,3,-13,
899,7,10,2023,15,7,43,851,-2050,-449,3540,-2,-9,-8,
900,7,10,2023,15,7,43,861,-2038,-467,3542,-8,-6,-13,
901,7,10,2023,15,7,43,871,-2044,-459,3522,-2,6,-8,
902,7,10,2023,15,7,43,881,-2041,-464,3534,-2,-10,-6,
903,7,10,2023,15,7,43,891,-2031,-461,3546,-1,-6,-8,
904,7,10,2023,15,7,43,901,-2029,-447,3525,3,10,-6,
905,7,10,2023,15,7,43,911,-2034,-457,3536,-8,2,-9,
906,7,10,2023,15,7,43,921,-2043,-452,3539,-12,14,-10,
907,7,10,2023,15,7,43,931,-2040,-463,3522,-16,20,-19,
908,7,10,2023,15,7,43,941,-2043,-458,3530,-9,6,-14,
909,7,10,2023,15,7,43,951,-2045,-472,3529,-8,14,-10,
910,7,10,2023,15,7,43,961,-2049,-464,3523,-6,11,-7,
911,7,10,2023,15,7,43,971,-2038,-459,3534,-5,1,-5,
912,7,10,2023,15,7,43,981,-2040,-468,3528,-7,17,-6,
913,7,10,2023,15,7,43,991,-2044,-464,3515,-1,17,-7,
914,7,10,2023,15,7,44,1,-2026,-460,3533,0,5,-3,
915,7,10,2023,15,7,44,11,-2039,-454,3542,4,18,4,
916,7,10,2023,15,7,44,21,-2053,-470,3523,7,29,3,
917,7,10,2023,15,7,44,31,-2037,-463,3529,13,6,8,
918,7,10,2023,15,7,44,41,-2040,-480,3535,14,8,9,
919,7,10,2023,15,7,44,51,-2043,-466,3519,15,25,16,
920,7,10,2023,15,7,44,61,-2041,-453,3527,21,9,19,
921,7,10,2023,15,7,44,71,-2040,-460,3539,27,7,16,
922,7,10,2023,15,7,44,81,-2036,-469,3520,35,25,23,
923,7,10,2023,15,7,44,91,-2044,-488,3517,42,11,28,
924,7,10,2023,15,7,44,101,-2057,-449,3540,57,8,41,
925,7,10,2023,15,7,44,111,-2055,-478,3523,53,16,36,
926,7,10,2023,15,7,44,121,-2054,-431,3522,65,-1,48,
927,7,10,2023,15,7,44,131,-2022,-495,3527,61,-10,35,
928,7,10,2023,15,7,44,141,-2035,-462,3531,85,-1,64,
929,7,10,2023,15,7,44,151,-2038,-493,3529,87,5,66,
930,7,10,2023,15,7,44,161,-2032,-438,3541,112,-11,85,
931,7,10,2023,15,7,44,171,-2051,-459,3547,104,-13,80,
932,7,10,2023,15,7,44,181,-2054,-418,3531,103,-7,87,
933,7,10,2023,15,7,44,191,-2052,-407,3549,87,-30,81,
934,7,10,2023,15,7,44,201,-2058,-400,3545,72,-19,72,
935,7,10,2023,15,7,44,211,-2057,-395,3533,63,4,59,
936,7,10,2023,15,7,44,231,-2033,-432,3551,43,-8,44,
937,7,10,2023,15,7,44,241,-2053,-404,3528,44,20,44,
938,7,10,2023,15,7,44,251,-2056,-415,3531,41,8,39,
939,7,10,2023,15,7,44,261,-2052,-424,3551,35,7,31,
940,7,10,2023,15,7,44,271,-2060,-407,3535,37,24,33,
941,7,10,2023,15,7,44,281,-2070,-403,3528,37,10,24,
942,7,10,2023,15,7,44,291,-2083,-382,3544,34,-5,18,
943,7,10,2023,15,7,44,301,-2099,-394,3535,22,3,3,
944,7,10,2023,15,7,44,311,-2121,-358,3532,26,-12,-3,
945,7,10,2023,15,7,44,321,-2133,-381,3541,17,-35,-26,
946,7,10,2023,15,7,44,331,-2178,-368,3523,24,-56,-35,
947,7,10,2023,15,7,44,341,-2193,-359,3520,34,-99,-53,
948,7,10,2023,15,7,44,351,-2149,-369,3527,38,-155,-71,
949,7,10,2023,15,7,44,361,-2083,-400,3541,34,-188,-84,
950,7,10,2023,15,7,44,371,-2025,-442,3529,27,-211,-79,
951,7,10,2023,15,7,44,381,-1948,-474,3526,26,-219,-66,
952,7,10,2023,15,7,44,391,-1954,-511,3544,23,-218,-50,
953,7,10,2023,15,7,44,401,-2004,-492,3523,36,-190,-27,
954,7,10,2023,15,7,44,411,-2018,-433,3536,59,-206,-10,
955,7,10,2023,15,7,44,421,-1997,-431,3568,60,-238,-8,
956,7,10,2023,15,7,44,431,-2011,-409,3556,65,-198,-5,
957,7,10,2023,15,7,44,441,-2026,-397,3541,52,-199,-6,
958,7,10,2023,15,7,44,451,-1951,-311,3573,24,-224,-24,
959,7,10,2023,15,7,44,461,-1806,-391,3553,-28,-169,-69,
960,7,10,2023,15,7,44,471,-1779,-487,3591,-61,-116,-75,
961,7,10,2023,15,7,44,481,-1928,-402,3649,-54,-73,-49,
962,7,10,2023,15,7,44,491,-2007,-320,3572,-55,21,-50,
963,7,10,2023,15,7,44,501,-1943,-379,3558,-78,-24,-70,
964,7,10,2023,15,7,44,511,-1893,-503,3610,-84,-30,-71,
965,7,10,2023,15,7,44,521,-1975,-432,3570,-50,70,-37,
966,7,10,2023,15,7,44,531,-1983,-398,3518,-45,48,-36,
967,7,10,2023,15,7,44,541,-1989,-436,3586,-64,52,-48,
968,7,10,2023,15,7,44,551,-1982,-420,3517,-71,94,-44,
969,7,10,2023,15,7,44,561,-1939,-443,3559,-81,40,-47,
970,7,10,2023,15,7,44,571,-1924,-407,3597,-89,52,-51,
971,7,10,2023,15,7,44,581,-2005,-372,3529,-116,93,-77,
972,7,10,2023,15,7,44,591,-2019,-359,3587,-182,54,-82,
973,7,10,2023,15,7,44,601,-1900,-406,3559,-175,91,-108,
974,7,10,2023,15,7,44,611,-2018,-442,3527,-204,84,-128,
975,7,10,2023,15,7,44,621,-1966,-468,3550,-177,78,-115,
976,7,10,2023,15,7,44,631,-1777,-327,3557,-180,82,-109,
977,7,10,2023,15,7,44,641,-2094,-506,3567,-309,95,-156,
978,7,10,2023,15,7,44,651,-1935,-421,3535,-234,149,-136,
979,7,10,2023,15,7,44,661,-1876,-401,3539,-348,104,-173,
980,7,10,2023,15,7,44,671,-2017,-573,3530,-412,182,-206,
981,7,10,2023,15,7,44,681,-1790,-425,3532,-356,177,-186,
982,7,10,2023,15,7,44,691,-2169,-510,3589,-462,166,-213,
983,7,10,2023,15,7,44,701,-1912,-418,3480,-355,219,-193,
984,7,10,2023,15,7,44,711,-1992,-488,3539,-458,127,-231,
985,7,10,2023,15,7,44,721,-2030,-684,3473,-457,225,-234,
986,7,10,2023,15,7,44,731,-1809,-520,3485,-408,168,-189,
987,7,10,2023,15,7,44,741,-2202,-697,3560,-459,204,-208,
988,7,10,2023,15,7,44,751,-1894,-580,3418,-318,224,-152,
989,7,10,2023,15,7,44,761,-2311,-682,3553,-337,147,-151,
990,7,10,2023,15,7,44,771,-1908,-658,3395,-218,172,-106,
991,7,10,2023,15,7,44,781,-2286,-672,3560,-224,38,-83,
992,7,10,2023,15,7,44,791,-1893,-665,3386,-91,100,-32,
993,7,10,2023,15,7,44,801,-2299,-756,3546,-76,-36,0,
994,7,10,2023,15,7,44,811,-1994,-791,3470,40,-9,80,
995,7,10,2023,15,7,44,821,-2143,-673,3518,85,-91,177,
996,7,10,2023,15,7,44,831,-2130,-746,3497,135,-46,213,
997,7,10,2023,15,7,44,841,-1991,-498,3532,219,-119,245,
998,7,10,2023,15,7,44,851,-2256,-658,3608,192,-82,177,
999,7,10,2023,15,7,44,861,-1675,-359,3495,305,-48,179,
1000,7,10,2023,15,7,44,871,-2375,-603,3697,146,-96,123,
1001,7,10,2023,15,7,44,881,-1804,-557,3451,247,18,175,
1002,7,10,2023,15,7,44,891,-2053,-682,3619,184,-176,206,
1003,7,10,2023,15,7,44,901,-2260,-808,3520,261,-32,301,
1004,7,10,2023,15,7,44,911,-1784,-515,3422,409,-172,404,
1005,7,10,2023,15,7,44,921,-2415,-632,3693,355,-296,391,
1006,7,10,2023,15,7,44,931,-1968,-531,3393,448,-147,432,
1007,7,10,2023,15,7,44,941,-2163,-395,3610,482,-364,447,
1008,7,10,2023,15,7,44,951,-1787,-466,3527,418,-286,410,
1009,7,10,2023,15,7,44,961,-1958,-326,3571,387,-247,400,
1010,7,10,2023,15,7,44,971,-1992,-312,3615,321,-155,346,
1011,7,10,2023,15,7,44,981,-1751,-253,3595,243,-78,302,
1012,7,10,2023,15,7,44,991,-1780,-306,3615,159,7,247,
1013,7,10,2023,15,7,45,1,-2171,-376,3619,114,165,220,
1014,7,10,2023,15,7,45,11,-1856,-370,3594,112,175,226,
1015,7,10,2023,15,7,45,21,-1578,-472,3574,102,177,241,
1016,7,10,2023,15,7,45,31,-2238,-516,3633,123,291,296,
1017,7,10,2023,15,7,45,41,-1871,-494,3518,144,355,347,
1018,7,10,2023,15,7,45,51,-1646,-453,3640,150,252,402,
1019,7,10,2023,15,7,45,61,-2262,-379,3562,177,419,413,
1020,7,10,2023,15,7,45,71,-1597,-263,3432,181,366,426,
1021,7,10,2023,15,7,45,91,-1666,-394,3426,79,506,324,
1022,7,10,2023,15,7,45,101,-2220,-448,3625,113,403,384,
1023,7,10,2023,15,7,45,111,-1857,-468,3411,185,580,454,
1024,7,10,2023,15,7,45,121,-2193,-282,3588,218,463,561,
1025,7,10,2023,15,7,45,131,-1856,-233,3601,196,560,551,
1026,7,10,2023,15,7,45,141,-1982,-376,3630,91,649,543,
1027,7,10,2023,15,7,45,151,-1804,-425,3612,96,824,561,
1028,7,10,2023,15,7,45,161,-1719,-144,3794,111,930,616,
1029,7,10,2023,15,7,45,171,-1803,-259,3773,0,1306,568,
1030,7,10,2023,15,7,45,181,-1572,274,3770,18,1588,557,
1031,7,10,2023,15,7,45,191,-2347,-159,3609,-280,2001,328,
1032,7,10,2023,15,7,45,201,-2061,50,3407,-248,2226,317,
1033,7,10,2023,15,7,45,211,-2241,-270,3403,-438,2108,305,
1034,7,10,2023,15,7,45,221,-2781,-327,3175,-412,2422,347,
1035,7,10,2023,15,7,45,231,-2367,-269,3097,-320,2290,338,
1036,7,10,2023,15,7,45,241,-2565,-560,3346,-326,2184,375,
1037,7,10,2023,15,7,45,251,-2140,-725,3361,-233,2348,436,
1038,7,10,2023,15,7,45,261,-2114,-514,3534,-78,2490,542,
1039,7,10,2023,15,7,45,271,-2275,-464,3431,-73,2900,621,
1040,7,10,2023,15,7,45,281,-2298,-449,3322,-43,3165,709,
1041,7,10,2023,15,7,45,291,-2432,-329,3238,23,3347,769,
1042,7,10,2023,15,7,45,301,-2803,-142,2987,65,3571,787,
1043,7,10,2023,15,7,45,311,-2953,43,2807,45,3562,755,
1044,7,10,2023,15,7,45,321,-2875,-74,2970,-53,3396,674,
1045,7,10,2023,15,7,45,331,-2854,-192,2985,-82,3457,641,
1046,7,10,2023,15,7,45,341,-2803,-354,3030,-105,3560,689,
1047,7,10,2023,15,7,45,351,-2602,-513,3162,-101,3717,791,
1048,7,10,2023,15,7,45,361,-2565,-438,3166,-38,4030,937,
1049,7,10,2023,15,7,45,371,-2976,-377,2677,69,4356,947,
1050,7,10,2023,15,7,45,381,-3408,69,2377,268,4373,820,
1051,7,10,2023,15,7,45,391,-3288,76,2439,236,4142,542,
1052,7,10,2023,15,7,45,401,-3225,19,2570,127,4247,327,
1053,7,10,2023,15,7,45,411,-2953,-359,3002,-31,4366,172,
1054,7,10,2023,15,7,45,421,-2593,-451,3461,-43,5029,89,
1055,7,10,2023,15,7,45,431,-2476,-693,3692,-78,6273,50,
1056,7,10,2023,15,7,45,441,-2245,-908,4126,-172,7776,84,
1057,7,10,2023,15,7,45,451,-2306,-1447,4414,-205,9500,292,
1058,7,10,2023,15,7,45,461,-2919,-1801,4415,91,11135,797,
1059,7,10,2023,15,7,45,471,-3720,-1412,4844,348,12099,1645,
1060,7,10,2023,15,7,45,481,-6142,-886,5075,163,13038,2626,
1061,7,10,2023,15,7,45,491,-8826,-591,4842,53,13333,3073,
1062,7,10,2023,15,7,45,501,-10135,-870,5687,-129,11252,3288,
1063,7,10,2023,15,7,45,511,-10323,-871,5744,-379,9606,3449,
1064,7,10,2023,15,7,45,521,-9575,-1490,4709,-945,8524,3370,
1065,7,10,2023,15,7,45,531,-5576,-1706,4936,-1716,5444,3110,
1066,7,10,2023,15,7,45,541,2762,-3224,4255,-2343,4101,2572,
1067,7,10,2023,15,7,45,551,-153,-5383,2472,-910,5640,1480,
1068,7,10,2023,15,7,45,561,-15763,-2515,6357,1560,4244,-84,
1069,7,10,2023,15,7,45,571,-3305,-3873,5812,-501,-5633,-2801,
1070,7,10,2023,15,7,45,581,5226,-3005,3167,157,-6242,-3524,
1071,7,10,2023,15,7,45,591,1014,-1882,-2272,762,332,-4158,
1072,7,10,2023,15,7,45,601,-196,1045,189,1051,-3887,-3335,
1073,7,10,2023,15,7,45,611,2008,616,4154,-156,-5771,-2852,
1074,7,10,2023,15,7,45,621,-446,791,1085,-677,-1738,-1952,
1075,7,10,2023,15,7,45,631,-241,-304,516,-1276,-4896,-1400,
1076,7,10,2023,15,7,45,641,1536,60,2984,-1240,-7456,-608,
1077,7,10,2023,15,7,45,651,311,-235,1000,-1275,-4913,-206,
1078,7,10,2023,15,7,45,661,-57,-72,534,-1258,-6268,171,
1079,7,10,2023,15,7,45,671,896,-401,2236,-1435,-7973,183,
1080,7,10,2023,15,7,45,681,189,-489,1254,-1459,-6529,8,
1081,7,10,2023,15,7,45,691,-16,-449,988,-1523,-7149,-354,
1082,7,10,2023,15,7,45,701,552,-443,1831,-1646,-7986,-903,
1083,7,10,2023,15,7,45,711,385,-404,1182,-1689,-7189,-1466,
1084,7,10,2023,15,7,45,721,539,-323,1209,-1703,-7305,-2000,
1085,7,10,2023,15,7,45,731,692,-124,1639,-1690,-7183,-2496,
1086,7,10,2023,15,7,45,741,643,166,1492,-1607,-6589,-2854,
1087,7,10,2023,15,7,45,751,882,419,1639,-1423,-6396,-2929,
1088,7,10,2023,15,7,45,761,969,380,1739,-1141,-5788,-2715,
1089,7,10,2023,15,7,45,771,852,666,1807,-768,-5018,-2191,
1090,7,10,2023,15,7,45,781,853,883,1966,-602,-4193,-1592,
1091,7,10,2023,15,7,45,791,850,542,2074,-704,-2953,-1033,
1092,7,10,2023,15,7,45,801,-100,180,2349,-904,-1273,-756,
1093,7,10,2023,15,7,45,811,-2362,612,2543,-1035,676,-904,
1094,7,10,2023,15,7,45,821,-5368,619,2662,-1386,2284,-1406,
1095,7,10,2023,15,7,45,831,-8971,38,2558,-1939,3440,-2018,
1096,7,10,2023,15,7,45,841,-12723,25,2354,-2044,3917,-2548,
1097,7,10,2023,15,7,45,851,-15074,-226,1850,-1924,3037,-2926,
1098,7,10,2023,15,7,45,861,-15773,194,1313,-1499,1250,-3011,
1099,7,10,2023,15,7,45,871,-14954,766,344,-877,-452,-2806,
1100,7,10,2023,15,7,45,881,-12978,364,-1184,-268,-1902,-2212,
1101,7,10,2023,15,7,45,891,-10235,511,-2944,421,-3411,-1051,
1102,7,10,2023,15,7,45,901,-7125,763,-4550,1179,-3688,-58,
1103,7,10,2023,15,7,45,911,-4931,1335,-5327,1468,-2556,419,
1104,7,10,2023,15,7,45,921,-4455,-102,-5552,738,-535,-102,
1105,7,10,2023,15,7,45,931,-6021,-1011,-5423,503,1866,-877,
1106,7,10,2023,15,7,45,951,-8208,-542,-4148,1056,2211,-2208,
1107,7,10,2023,15,7,45,961,-7021,1134,-4349,1060,1666,-2236,
1108,7,10,2023,15,7,45,971,-5427,4090,-4710,512,1401,-1540,
1109,7,10,2023,15,7,45,981,-4403,5280,-4085,-1262,1928,-832,
1110,7,10,2023,15,7,45,991,-5241,3477,-3408,-3221,3711,115,
1111,7,10,2023,15,7,46,1,-15243,-14076,4095,-3554,4556,-193,
1112,7,10,2023,15,7,46,11,-23575,-20931,12012,5907,-3997,-1411,
1113,7,10,2023,15,7,46,21,-4360,23488,2260,16982,-11795,1421,
1114,7,10,2023,15,7,46,31,-5296,268,6246,-606,-13215,-1970,
1115,7,10,2023,15,7,46,41,223,-13431,2947,-2699,-11546,-191,
1116,7,10,2023,15,7,46,51,-6,3623,5062,5565,-9712,2125,
1117,7,10,2023,15,7,46,61,2194,4268,7893,2003,-11356,1184,
1118,7,10,2023,15,7,46,71,-1761,-8468,3930,-1129,-4811,270,
1119,7,10,2023,15,7,46,81,-4284,3359,1230,3842,-3235,2515,
1120,7,10,2023,15,7,46,91,834,-2169,6011,1277,-9831,991,
1121,7,10,2023,15,7,46,101,-230,1334,7263,2442,-4717,1604,
1122,7,10,2023,15,7,46,111,-3588,-333,969,1523,1236,736,
1123,7,10,2023,15,7,46,121,-1984,866,3660,1363,-4510,878,
1124,7,10,2023,15,7,46,131,545,-299,7106,350,-4210,323,
1125,7,10,2023,15,7,46,141,-2082,57,3036,511,2204,368,
1126,7,10,2023,15,7,46,151,-2803,-476,2049,276,118,82,
1127,7,10,2023,15,7,46,161,-647,76,5901,-2,-2951,229,
1128,7,10,2023,15,7,46,171,-1473,-834,4316,-156,1166,-36,
1129,7,10,2023,15,7,46,181,-3213,-1093,1527,61,1961,111,
1130,7,10,2023,15,7,46,191,-1982,-720,4033,133,-1646,281,
1131,7,10,2023,15,7,46,201,-1684,-36,4610,180,-167,300,
1132,7,10,2023,15,7,46,211,-2878,-837,2206,88,1635,54,
1133,7,10,2023,15,7,46,221,-2259,-671,3395,191,-799,208,
1134,7,10,2023,15,7,46,231,-1725,-505,4455,217,-728,285,
1135,7,10,2023,15,7,46,241,-2699,-382,2747,271,1030,228,
1136,7,10,2023,15,7,46,251,-2574,-594,2938,218,-378,164,
1137,7,10,2023,15,7,46,261,-1950,-650,4020,212,-1093,220,
1138,7,10,2023,15,7,46,271,-2367,-673,3085,333,101,259,
1139,7,10,2023,15,7,46,281,-2470,-784,2909,458,-525,347,
1140,7,10,2023,15,7,46,291,-1951,-857,3781,536,-1364,468,
1141,7,10,2023,15,7,46,301,-2017,-747,3418,687,-669,537,
1142,7,10,2023,15,7,46,311,-1938,-651,3037,715,-700,554,
1143,7,10,2023,15,7,46,321,-1467,-776,3689,568,-1382,555,
1144,7,10,2023,15,7,46,331,-1531,-288,3875,499,-955,600,
1145,7,10,2023,15,7,46,341,-1680,-273,3429,324,-362,454,
1146,7,10,2023,15,7,46,351,-1582,-290,3722,173,-670,408,
1147,7,10,2023,15,7,46,361,-1559,-419,3843,66,-446,408,
1148,7,10,2023,15,7,46,371,-1862,-176,3461,103,75,448,
1149,7,10,2023,15,7,46,381,-1857,11,3624,40,-156,424,
1150,7,10,2023,15,7,46,391,-1640,-192,3801,-110,-108,320,
1151,7,10,2023,15,7,46,401,-1651,-604,3520,-176,224,288,
1152,7,10,2023,15,7,46,411,-1674,-518,3580,-95,120,425,
1153,7,10,2023,15,7,46,421,-1596,-457,3772,-19,112,497,
1154,7,10,2023,15,7,46,431,-1795,-275,3735,56,451,525,
1155,7,10,2023,15,7,46,441,-1805,-188,3667,35,608,530,
1156,7,10,2023,15,7,46,451,-1743,71,3925,-17,660,549,
1157,7,10,2023,15,7,46,461,-1564,56,3993,-106,1063,456,
1158,7,10,2023,15,7,46,471,-1465,-231,4022,-205,1516,338,
1159,7,10,2023,15,7,46,481,-1386,-288,3938,-282,1886,380,
1160,7,10,2023,15,7,46,491,-1905,-699,3986,-373,2371,424,
1161,7,10,2023,15,7,46,501,-1274,-903,3999,-302,2697,622,
1162,7,10,2023,15,7,46,511,-1920,-981,3676,-133,3179,795,
1163,7,10,2023,15,7,46,521,-2210,-613,3432,6,3397,1038,
1164,7,10,2023,15,7,46,531,-2361,-459,3547,34,3440,1237,
1165,7,10,2023,15,7,46,541,-2021,-361,3581,29,3660,1334,
1166,7,10,2023,15,7,46,551,-2156,-488,3712,20,3997,1408,
1167,7,10,2023,15,7,46,561,-1908,-552,3885,58,4460,1475,
1168,7,10,2023,15,7,46,571,-1928,-668,3982,104,5077,1593,
1169,7,10,2023,15,7,46,581,-1788,-761,4009,155,5671,1746,
1170,7,10,2023,15,7,46,591,-2182,-818,3708,308,6309,1829,
1171,7,10,2023,15,7,46,601,-2572,-353,3610,585,6945,1945,
1172,7,10,2023,15,7,46,611,-2172,-434,3887,617,7581,1997,
1173,7,10,2023,15,7,46,621,-1650,-488,4592,765,8560,1956,
1174,7,10,2023,15,7,46,631,-1549,-697,5341,986,10095,1824,
1175,7,10,2023,15,7,46,641,-1766,-1312,5368,1337,11610,1748,
1176,7,10,2023,15,7,46,651,-3109,-985,4877,2068,12570,1866,
1177,7,10,2023,15,7,46,661,-3675,-576,4467,2383,12755,2026,
1178,7,10,2023,15,7,46,671,-3005,-1063,4419,2154,12266,2164,
1179,7,10,2023,15,7,46,681,-674,-1707,3311,2194,12319,2440,
1180,7,10,2023,15,7,46,691,1607,-1766,1092,2465,12846,2716,
1181,7,10,2023,15,7,46,701,-85,-1504,971,2550,12453,2657,
1182,7,10,2023,15,7,46,711,1693,-516,5268,1944,8904,1538,
1183,7,10,2023,15,7,46,721,-1909,1292,11481,580,3657,289,
1184,7,10,2023,15,7,46,731,-8349,110,11834,-1680,1157,-483,
1185,7,10,2023,15,7,46,741,1069,-4549,4691,-3374,-5138,-1661,
1186,7,10,2023,15,7,46,751,3744,-4169,3697,-2442,-8578,-2092,
1187,7,10,2023,15,7,46,761,2929,-3992,1212,-1104,-6226,-2514,
1188,7,10,2023,15,7,46,771,1159,-2838,623,247,-6332,-2729,
1189,7,10,2023,15,7,46,781,378,-1155,3149,873,-7849,-2866,
1190,7,10,2023,15,7,46,791,-921,-390,3285,612,-6775,-3275,
1191,7,10,2023,15,7,46,811,-1058,-76,3099,-689,-9071,-3633,
1192,7,10,2023,15,7,46,821,-1091,287,2690,-997,-8407,-3352,
1193,7,10,2023,15,7,46,831,-1299,407,1116,-1213,-7647,-2898,
1194,7,10,2023,15,7,46,841,-292,966,1235,-1182,-8057,-2014,
1195,7,10,2023,15,7,46,851,709,1100,1371,-1195,-6297,-957,
1196,7,10,2023,15,7,46,861,-189,1731,1306,-1314,-3501,216,
1197,7,10,2023,15,7,46,871,-2062,2207,2517,-1974,-2106,1013,
1198,7,10,2023,15,7,46,881,-4882,2141,3472,-3047,-339,1228,
1199,7,10,2023,15,7,46,891,-8153,2241,2735,-4178,1282,923,
1200,7,10,2023,15,7,46,901,-10667,1931,2472,-5459,696,20,
1201,7,10,2023,15,7,46,911,-12202,1029,2324,-6431,-228,-1129,
1202,7,10,2023,15,7,46,921,-13470,-447,791,-6577,-421,-2260,
1203,7,10,2023,15,7,46,931,-13107,-1871,-834,-5450,-1856,-2993,
1204,7,10,2023,15,7,46,941,-10853,-2571,-1760,-3117,-3323,-3120,
1205,7,10,2023,15,7,46,951,-8317,-2217,-3401,-186,-3057,-2652,
1206,7,10,2023,15,7,46,961,-6107,-77,-4710,2575,-2487,-1906,
1207,7,10,2023,15,7,46,971,-4416,1600,-4354,3897,-1698,-1687,
1208,7,10,2023,15,7,46,981,-4239,2024,-3972,3842,632,-1938,
1209,7,10,2023,15,7,46,991,-5330,1483,-3907,3103,2783,-2369,
1210,7,10,2023,15,7,47,1,-7202,525,-2967,2360,3395,-2680,
1211,7,10,2023,15,7,47,11,-8616,-199,-2465,1962,3473,-2706,
1212,7,10,2023,15,7,47,21,-8569,34,-3095,1878,2444,-2427,
1213,7,10,2023,15,7,47,31,-6482,1248,-3419,1623,500,-2062,
1214,7,10,2023,15,7,47,41,-4185,3014,-3665,682,200,-1783,
1215,7,10,2023,15,7,47,51,-3310,3518,-4411,-1152,1899,-1570,
1216,7,10,2023,15,7,47,61,-6003,-227,-3604,-3028,3652,-1331,
1217,7,10,2023,15,7,47,71,-26697,-18246,14158,-1168,2582,-1786,
1218,7,10,2023,15,7,47,81,-10347,8656,1523,8800,-10275,690,
1219,7,10,2023,15,7,47,91,-2823,2477,-1815,2168,-12117,-1658,
1220,7,10,2023,15,7,47,101,-4613,-8521,6163,-482,-13412,-960,
1221,7,10,2023,15,7,47,111,4867,-1684,7932,3435,-12784,409,
1222,7,10,2023,15,7,47,121,2792,1878,8242,2250,-8993,1262,
1223,7,10,2023,15,7,47,131,-2671,-2855,3291,-103,-4200,978,
1224,7,10,2023,15,7,47,141,-5478,963,1327,1724,-4540,1624,
1225,7,10,2023,15,7,47,151,-391,221,5127,1336,-9137,681,
1226,7,10,2023,15,7,47,161,1372,14,7569,1202,-6536,619,
1227,7,10,2023,15,7,47,171,-2821,-765,3152,1063,-118,410,
1228,7,10,2023,15,7,47,181,-2979,-391,1883,1274,-1936,375,
1229,7,10,2023,15,7,47,191,31,-474,5965,791,-5480,320,
1230,7,10,2023,15,7,47,201,-642,-216,5263,624,-906,342,
1231,7,10,2023,15,7,47,211,-2904,169,2135,590,1436,183,
1232,7,10,2023,15,7,47,221,-1665,-301,3944,54,-2014,-83,
1233,7,10,2023,15,7,47,231,-730,-478,5384,-108,-1276,-88,
1234,7,10,2023,15,7,47,241,-2359,-357,2906,-5,1656,-59,
1235,7,10,2023,15,7,47,251,-2344,-643,2950,-157,-110,-111,
1236,7,10,2023,15,7,47,261,-1284,-957,4611,-225,-1006,-90,
1237,7,10,2023,15,7,47,271,-2051,-1118,3180,-80,1128,3,
1238,7,10,2023,15,7,47,281,-2427,-1221,2627,92,472,165,
1239,7,10,2023,15,7,47,291,-1708,-1108,4042,267,-823,363,
1240,7,10,2023,15,7,47,301,-2013,-959,3543,462,387,511,
1241,7,10,2023,15,7,47,311,-2498,-802,2886,577,418,616,
1242,7,10,2023,15,7,47,321,-2017,-696,3694,578,-663,668,
1243,7,10,2023,15,7,47,331,-2088,-470,3680,612,-162,672,
1244,7,10,2023,15,7,47,341,-2479,-249,3152,582,189,595,
1245,7,10,2023,15,7,47,351,-2281,-382,3512,451,-448,454,
1246,7,10,2023,15,7,47,361,-2257,-362,3661,421,-371,375,
1247,7,10,2023,15,7,47,371,-2526,-332,3312,400,-155,292,
1248,7,10,2023,15,7,47,381,-2277,-271,3369,372,-595,218,
1249,7,10,2023,15,7,47,391,-1563,-535,3420,296,-703,130,
1250,7,10,2023,15,7,47,401,-1388,-1006,3429,236,-500,161,
1251,7,10,2023,15,7,47,411,-1836,-564,3501,365,-461,585,
1252,7,10,2023,15,7,47,421,-1881,-411,3448,381,-427,619,
1253,7,10,2023,15,7,47,431,-1988,-277,3568,372,-475,607,
1254,7,10,2023,15,7,47,441,-2003,-222,3586,308,-407,545,
1255,7,10,2023,15,7,47,451,-2043,131,3649,274,-325,468,
1256,7,10,2023,15,7,47,461,-1834,6,3650,101,-257,285,
1257,7,10,2023,15,7,47,471,-1544,-257,3719,-11,-163,163,
1258,7,10,2023,15,7,47,481,-1402,-659,3790,-72,74,121,
1259,7,10,2023,15,7,47,491,-1725,-646,3663,-117,223,292,
1260,7,10,2023,15,7,47,501,-1754,-525,3679,-75,229,426,
1261,7,10,2023,15,7,47,511,-1815,-145,3746,-6,332,512,
1262,7,10,2023,15,7,47,521,-1819,-167,3725,-113,533,461,
1263,7,10,2023,15,7,47,531,-1766,-343,3769,-163,678,451,
1264,7,10,2023,15,7,47,541,-1598,-415,3910,-160,898,512,
1265,7,10,2023,15,7,47,551,-1553,-327,3978,-155,1237,579,
1266,7,10,2023,15,7,47,561,-1509,-426,3831,-225,1606,593,
1267,7,10,2023,15,7,47,571,-2363,-473,3568,-223,1894,662,
1268,7,10,2023,15,7,47,581,-2021,-433,3489,-176,1933,745,
1269,7,10,2023,15,7,47,591,-2175,-691,3576,-165,1938,831,
1270,7,10,2023,15,7,47,601,-2211,-573,3514,-75,2083,961,
1271,7,10,2023,15,7,47,611,-1968,-571,3720,-17,2170,1088,
1272,7,10,2023,15,7,47,621,-1791,-520,3865,33,2526,1179,
1273,7,10,2023,15,7,47,631,-1748,-426,4130,56,3081,1301,
1274,7,10,2023,15,7,47,641,-1534,-584,4259,37,3816,1306,
1275,7,10,2023,15,7,47,651,-1625,-397,4324,108,4650,1298,
1276,7,10,2023,15,7,47,671,-1116,-584,4644,161,6754,1365,
1277,7,10,2023,15,7,47,681,-730,-466,4957,265,8310,1320,
1278,7,10,2023,15,7,47,691,-692,-1079,4924,304,10025,1103,
1279,7,10,2023,15,7,47,701,-1462,-959,4686,773,11804,1050,
1280,7,10,2023,15,7,47,711,-2283,-634,4864,1237,13225,1100,
1281,7,10,2023,15,7,47,721,-3113,-1447,5379,1421,13945,1015,
1282,7,10,2023,15,7,47,731,-3861,-1231,5491,1872,14140,1272,
1283,7,10,2023,15,7,47,741,-3649,-1201,4906,1652,13430,2120,
1284,7,10,2023,15,7,47,751,-4989,-2054,5305,1193,12802,2748,
1285,7,10,2023,15,7,47,761,-1420,-3104,3482,1041,11410,2769,
1286,7,10,2023,15,7,47,771,6766,-4339,1209,1382,9576,2319,
1287,7,10,2023,15,7,47,781,2941,-1195,5362,2978,8378,1981,
1288,7,10,2023,15,7,47,791,-8217,2409,11625,2670,3654,1215,
1289,7,10,2023,15,7,47,801,-1470,-641,10830,-679,-3975,-173,
1290,7,10,2023,15,7,47,811,5968,-3732,3555,-2509,-6095,-1273,
1291,7,10,2023,15,7,47,821,4154,-4061,184,-2405,-5155,-1968,
1292,7,10,2023,15,7,47,831,3000,-3665,1947,-1606,-7281,-2210,
1293,7,10,2023,15,7,47,841,1851,-2462,3351,-962,-6570,-2534,
1294,7,10,2023,15,7,47,851,-116,-727,2123,-881,-5511,-2810,
1295,7,10,2023,15,7,47,861,588,-450,2707,-1566,-8115,-3307,
1296,7,10,2023,15,7,47,871,1268,351,3264,-2065,-8277,-3299,
1297,7,10,2023,15,7,47,881,364,250,1482,-2557,-6577,-3354,
1298,7,10,2023,15,7,47,891,51,920,1767,-2696,-7574,-3051,
1299,7,10,2023,15,7,47,901,1016,847,2077,-2739,-7279,-2558,
1300,7,10,2023,15,7,47,911,699,145,514,-2365,-4556,-1612,
1301,7,10,2023,15,7,47,921,-460,11,1120,-1879,-3856,-524,
1302,7,10,2023,15,7,47,931,-2057,1007,3158,-1583,-2638,324,
1303,7,10,2023,15,7,47,941,-5572,689,2660,-2068,645,484,
1304,7,10,2023,15,7,47,951,-9113,372,2078,-2721,1255,293,
1305,7,10,2023,15,7,47,961,-11045,-199,2884,-3467,229,-419,
1306,7,10,2023,15,7,47,971,-12701,-687,1887,-3870,904,-1342,
1307,7,10,2023,15,7,47,981,-13689,-1451,191,-3874,366,-2377,
1308,7,10,2023,15,7,47,991,-12753,-1637,-2,-3254,-1839,-3010,
1309,7,10,2023,15,7,48,1,-11721,-1489,-690,-2174,-2148,-3113,
1310,7,10,2023,15,7,48,11,-10782,-453,-2584,-897,-1955,-2765,
1311,7,10,2023,15,7,48,21,-7890,830,-3415,79,-3133,-2288,
1312,7,10,2023,15,7,48,31,-5225,2260,-3179,391,-2782,-2031,
1313,7,10,2023,15,7,48,41,-5021,1958,-3688,-191,-375,-2100,
1314,7,10,2023,15,7,48,51,-5740,1028,-3705,-673,1014,-1995,
1315,7,10,2023,15,7,48,61,-6652,-278,-2593,-846,1421,-1802,
1316,7,10,2023,15,7,48,71,-7776,-1096,-2422,-388,2088,-1486,
1317,7,10,2023,15,7,48,81,-7864,-1204,-2793,352,1271,-1233,
1318,7,10,2023,15,7,48,91,-6225,-143,-2380,923,-405,-1074,
1319,7,10,2023,15,7,48,101,-4528,995,-2372,760,-240,-1217,
1320,7,10,2023,15,7,48,111,-4088,1036,-2611,-59,935,-1557,
1321,7,10,2023,15,7,48,121,-4074,265,-1938,-793,1620,-1749,
1322,7,10,2023,15,7,48,131,-4239,-506,-1183,-977,2533,-1639,
1323,7,10,2023,15,7,48,141,-5758,-2778,-960,-650,3306,-1407,
1324,7,10,2023,15,7,48,151,-19116,-16806,9868,2130,2666,-1192,
1325,7,10,2023,15,7,48,161,-14330,3192,5856,14649,-6471,3167,
1326,7,10,2023,15,7,48,171,-7076,14082,1507,10057,-8988,987,
1327,7,10,2023,15,7,48,181,-4803,581,4094,448,-11992,317,
1328,7,10,2023,15,7,48,191,1588,-11573,4988,173,-11635,-176,
1329,7,10,2023,15,7,48,201,2959,5491,7885,5574,-9400,2556,
1330,7,10,2023,15,7,48,211,1254,755,6711,707,-7086,1077,
1331,7,10,2023,15,7,48,221,-3299,-2434,2885,220,-3205,1428,
1332,7,10,2023,15,7,48,231,-4353,1869,1911,1707,-3901,1260,
1333,7,10,2023,15,7,48,241,-697,-288,5507,560,-7373,350,
1334,7,10,2023,15,7,48,251,550,-1413,6274,528,-4093,278,
1335,7,10,2023,15,7,48,261,-3224,-1058,2420,775,429,567,
1336,7,10,2023,15,7,48,271,-2735,-1385,2473,904,-2479,595,
1337,7,10,2023,15,7,48,281,-573,-365,5716,1124,-4428,817,
1338,7,10,2023,15,7,48,291,-1869,-713,3845,939,-250,701,
1339,7,10,2023,15,7,48,301,-3222,-167,2124,1001,-185,768,
1340,7,10,2023,15,7,48,311,-1808,-547,4395,713,-2988,637,
1341,7,10,2023,15,7,48,321,-1642,-503,4401,741,-1201,640,
1342,7,10,2023,15,7,48,331,-2698,-680,2640,800,68,620,
1343,7,10,2023,15,7,48,341,-2020,-471,3587,806,-1830,700,
1344,7,10,2023,15,7,48,351,-1466,-572,4375,729,-1627,667,
1345,7,10,2023,15,7,48,361,-1992,-384,3244,839,-259,701,
1346,7,10,2023,15,7,48,371,-1889,-165,3440,766,-1033,716,
1347,7,10,2023,15,7,48,381,-1436,-211,4166,577,-1305,627,
1348,7,10,2023,15,7,48,391,-1696,-67,3653,496,-208,503,
1349,7,10,2023,15,7,48,401,-1872,-229,3477,306,-240,367,
1350,7,10,2023,15,7,48,411,-1760,-344,3876,200,-492,307,
1351,7,10,2023,15,7,48,421,-2012,-359,3584,178,25,304,
1352,7,10,2023,15,7,48,431,-2214,-164,3457,170,-66,316,
1353,7,10,2023,15,7,48,441,-2020,-153,3777,102,-365,214,
1354,7,10,2023,15,7,48,451,-1950,-210,3682,47,-95,91,
1355,7,10,2023,15,7,48,461,-1751,-450,3438,-19,-22,-18,
1356,7,10,2023,15,7,48,471,-1485,-775,3503,-74,-126,-43,
1357,7,10,2023,15,7,48,481,-1729,-540,3621,-65,-48,78,
1358,7,10,2023,15,7,48,491,-1837,-403,3538,-94,91,126,
1359,7,10,2023,15,7,48,501,-1843,-458,3552,-93,49,133,
1360,7,10,2023,15,7,48,511,-1928,-442,3565,-65,62,156,
1361,7,10,2023,15,7,48,531,-1854,-355,3584,-46,-18,206,
1362,7,10,2023,15,7,48,541,-1667,-279,3738,-13,18,227,
1363,7,10,2023,15,7,48,551,-1711,-320,3747,-40,200,205,
1364,7,10,2023,15,7,48,561,-1566,-364,3664,-49,376,204,
1365,7,10,2023,15,7,48,571,-1657,-395,3729,-88,505,261,
1366,7,10,2023,15,7,48,581,-1403,-339,3843,-97,687,269,
1367,7,10,2023,15,7,48,591,-1676,-229,3790,-146,1009,277,
1368,7,10,2023,15,7,48,601,-2010,-170,3567,-234,1267,283,
1369,7,10,2023,15,7,48,611,-1896,-208,3684,-298,1245,312,
1370,7,10,2023,15,7,48,621,-1762,-427,3711,-360,1410,324,
1371,7,10,2023,15,7,48,631,-1904,-486,3780,-362,1560,412,
1372,7,10,2023,15,7,48,641,-1800,-642,3694,-344,1785,510,
1373,7,10,2023,15,7,48,651,-1932,-863,3745,-264,1944,664,
1374,7,10,2023,15,7,48,661,-1802,-765,3624,-85,2158,787,
1375,7,10,2023,15,7,48,671,-2073,-614,3609,12,2331,947,
1376,7,10,2023,15,7,48,681,-2077,-482,3469,35,2477,1026,
1377,7,10,2023,15,7,48,691,-2494,-327,3405,73,2571,1112,
1378,7,10,2023,15,7,48,701,-2391,-335,3444,72,2633,1126,
1379,7,10,2023,15,7,48,711,-2081,-450,3643,88,2777,1138,
1380,7,10,2023,15,7,48,721,-1986,-582,3910,151,3123,1172,
1381,7,10,2023,15,7,48,731,-1828,-619,4160,200,3721,1201,
1382,7,10,2023,15,7,48,741,-1583,-614,4454,254,4549,1277,
1383,7,10,2023,15,7,48,751,-1003,-683,5034,301,5602,1388,
1384,7,10,2023,15,7,48,761,-406,-1317,5217,380,7121,1449,
1385,7,10,2023,15,7,48,771,-961,-1259,5021,833,8913,1476,
1386,7,10,2023,15,7,48,781,-1533,-1078,4685,1265,10302,1609,
1387,7,10,2023,15,7,48,791,-2413,-1335,4627,1632,11286,1808,
1388,7,10,2023,15,7,48,801,-2608,-1090,4626,2110,12000,2137,
1389,7,10,2023,15,7,48,811,-2967,-1366,4728,2299,12440,2372,
1390,7,10,2023,15,7,48,821,-3196,-1609,4733,2568,12475,2606,
1391,7,10,2023,15,7,48,831,-1782,-1987,3990,2877,12115,2973,
1392,7,10,2023,15,7,48,841,-250,-1900,2800,3065,12228,3439,
1393,7,10,2023,15,7,48,851,995,-1705,968,3158,11910,3135,
1394,7,10,2023,15,7,48,861,700,169,3771,3082,9186,2264,
1395,7,10,2023,15,7,48,871,1929,1272,9916,1367,3572,821,
1396,7,10,2023,15,7,48,881,-6463,2707,13440,-468,452,990,
1397,7,10,2023,15,7,48,891,1668,-4376,4771,-3312,-3980,-428,
1398,7,10,2023,15,7,48,901,4343,-3488,3023,-2606,-7887,-547,
1399,7,10,2023,15,7,48,911,3822,-4189,1946,-1889,-6606,-1369,
1400,7,10,2023,15,7,48,921,1246,-1886,1384,-666,-5603,-1579,
1401,7,10,2023,15,7,48,931,441,-1247,3052,-802,-7263,-2323,
1402,7,10,2023,15,7,48,941,333,-393,3671,-1243,-7263,-2962,
1403,7,10,2023,15,7,48,951,-118,-355,1974,-1753,-6476,-3481,
1404,7,10,2023,15,7,48,961,380,-139,1934,-1997,-7671,-3756,
1405,7,10,2023,15,7,48,971,790,792,2650,-1921,-7527,-3563,
1406,7,10,2023,15,7,48,981,623,1015,1144,-1947,-5611,-3211,
1407,7,10,2023,15,7,48,991,851,1207,697,-1778,-5146,-2360,
1408,7,10,2023,15,7,49,1,805,904,2439,-1802,-4472,-1387,
1409,7,10,2023,15,7,49,11,-1425,1205,3029,-1805,-1644,-364,
1410,7,10,2023,15,7,49,21,-4607,1223,2960,-2091,-30,112,
1411,7,10,2023,15,7,49,31,-7052,893,3865,-2666,-368,253,
1412,7,10,2023,15,7,49,41,-9406,660,3800,-3353,278,-20,
1413,7,10,2023,15,7,49,51,-12089,-35,2480,-4020,539,-796,
1414,7,10,2023,15,7,49,61,-13155,-651,1810,-4263,-1039,-1663,
1415,7,10,2023,15,7,49,71,-13106,-946,998,-4015,-1916,-2506,
1416,7,10,2023,15,7,49,81,-12683,-932,-863,-3310,-2070,-3178,
1417,7,10,2023,15,7,49,91,-11520,-813,-2262,-2279,-2878,-3458,
1418,7,10,2023,15,7,49,101,-8690,-42,-3582,-974,-3118,-3313,
1419,7,10,2023,15,7,49,111,-6181,1250,-5061,212,-1969,-2984,
1420,7,10,2023,15,7,49,121,-5249,1727,-5086,684,-594,-2789,
1421,7,10,2023,15,7,49,131,-5479,1325,-4305,687,1197,-2640,
1422,7,10,2023,15,7,49,141,-6915,-23,-4072,635,3103,-2500,
1423,7,10,2023,15,7,49,151,-7913,-1464,-3648,935,3352,-2327,
1424,7,10,2023,15,7,49,161,-7823,-1950,-2851,1631,2442,-2204,
1425,7,10,2023,15,7,49,171,-6990,-1384,-2869,2214,1907,-2311,
1426,7,10,2023,15,7,49,181,-5469,-345,-2892,2153,1223,-2671,
1427,7,10,2023,15,7,49,191,-4061,622,-1979,1286,1056,-3181,
1428,7,10,2023,15,7,49,201,-3884,1314,-1446,-212,2354,-3604,
1429,7,10,2023,15,7,49,211,-4324,1084,-1147,-2080,3281,-3635,
1430,7,10,2023,15,7,49,221,-10959,-6342,3192,-3396,3581,-3678,
1431,7,10,2023,15,7,49,231,-24872,-9982,14771,3368,-2378,333,
1432,7,10,2023,15,7,49,241,-5729,13134,-949,10463,-10166,3367,
1433,7,10,2023,15,7,49,251,-6395,-5260,-647,420,-10250,-470,
1434,7,10,2023,15,7,49,261,-1953,-5162,6750,3285,-14701,1781,
1435,7,10,2023,15,7,49,271,5078,913,9332,5021,-11798,2283,
1436,7,10,2023,15,7,49,281,2756,1062,5612,2637,-7064,2862,
1437,7,10,2023,15,7,49,291,-2132,511,4077,1851,-5661,2661,
1438,7,10,2023,15,7,49,301,-3013,3368,4338,2034,-4908,1951,
1439,7,10,2023,15,7,49,311,-847,-1720,4295,444,-4380,482,
1440,7,10,2023,15,7,49,321,-452,202,5384,1193,-3858,1135,
1441,7,10,2023,15,7,49,331,-2555,-1376,3679,547,-1236,826,
1442,7,10,2023,15,7,49,341,-2695,126,2584,1115,-1179,962,
1443,7,10,2023,15,7,49,351,-1400,-1019,4556,534,-3292,503,
1444,7,10,2023,15,7,49,361,-1665,-658,4270,763,-1121,651,
1445,7,10,2023,15,7,49,371,-2794,-416,2553,797,51,689,
1446,7,10,2023,15,7,49,391,-1582,-478,4382,530,-1634,618,
1447,7,10,2023,15,7,49,401,-2322,-523,3170,602,-144,564,
1448,7,10,2023,15,7,49,411,-2220,-400,3280,567,-1014,568,
1449,7,10,2023,15,7,49,421,-1638,-215,4120,472,-1478,535,
1450,7,10,2023,15,7,49,431,-1768,-392,3644,456,-375,435,
1451,7,10,2023,15,7,49,441,-2007,-146,3428,455,-384,492,
1452,7,10,2023,15,7,49,451,-1661,35,4051,309,-737,409,
1453,7,10,2023,15,7,49,461,-1749,-296,3850,189,-13,254,
1454,7,10,2023,15,7,49,471,-2011,-497,3477,160,258,219,
1455,7,10,2023,15,7,49,481,-1914,-509,3717,132,-84,276,
1456,7,10,2023,15,7,49,491,-1911,-684,3681,134,107,322,
1457,7,10,2023,15,7,49,501,-2074,-787,3440,186,270,429,
1458,7,10,2023,15,7,49,511,-2049,-604,3528,244,14,582,
1459,7,10,2023,15,7,49,521,-1963,-62,3696,288,-13,653,
1460,7,10,2023,15,7,49,531,-1956,28,3612,196,212,503,
1461,7,10,2023,15,7,49,541,-1943,-131,3606,73,281,330,
1462,7,10,2023,15,7,49,551,-1849,-499,3553,9,379,254,
1463,7,10,2023,15,7,49,561,-1881,-432,3531,45,476,340,
1464,7,10,2023,15,7,49,571,-1932,-228,3566,31,510,363,
1465,7,10,2023,15,7,49,581,-2009,-167,3508,-16,626,300,
1466,7,10,2023,15,7,49,591,-2055,-260,3477,-64,678,241,
1467,7,10,2023,15,7,49,601,-2029,-293,3543,-78,674,221,
1468,7,10,2023,15,7,49,611,-2035,-305,3560,-55,755,186,
1469,7,10,2023,15,7,49,621,-2041,-477,3491,-42,803,194,
1470,7,10,2023,15,7,49,631,-2049,-606,3421,-7,792,277,
1471,7,10,2023,15,7,49,641,-2108,-479,3387,79,782,435,
1472,7,10,2023,15,7,49,651,-2087,-443,3352,88,729,531,
1473,7,10,2023,15,7,49,661,-1999,-36,3540,92,738,626,
1474,7,10,2023,15,7,49,671,-1844,12,3717,-16,903,519,
1475,7,10,2023,15,7,49,681,-1938,241,3694,-36,1274,408,
1476,7,10,2023,15,7,49,691,-2088,212,3632,-134,1610,184,
1477,7,10,2023,15,7,49,701,-1893,17,3766,-255,1752,41,
1478,7,10,2023,15,7,49,711,-1866,-339,3643,-331,2126,3,
1479,7,10,2023,15,7,49,721,-1956,-518,3467,-309,2538,69,
1480,7,10,2023,15,7,49,731,-1767,-685,3515,-276,2705,227,
1481,7,10,2023,15,7,49,741,-1957,-620,3549,-159,3058,430,
1482,7,10,2023,15,7,49,751,-2179,-624,3243,-94,3427,516,
1483,7,10,2023,15,7,49,761,-2624,-306,3139,-16,3584,615,
1484,7,10,2023,15,7,49,771,-2839,-276,3088,-40,3586,635,
1485,7,10,2023,15,7,49,781,-2658,-329,3256,-55,3577,668,
1486,7,10,2023,15,7,49,791,-2141,-595,3787,-83,3750,776,
1487,7,10,2023,15,7,49,801,-1728,-792,4145,-37,4483,910,
1488,7,10,2023,15,7,49,811,-1392,-445,4465,37,5695,1044,
1489,7,10,2023,15,7,49,821,-1135,-20,4486,-171,7285,970,
1490,7,10,2023,15,7,49,831,-1723,-5,4040,-466,9156,461,
1491,7,10,2023,15,7,49,841,-1980,318,3493,-345,10220,-87,
1492,7,10,2023,15,7,49,851,-2364,-338,3063,-128,10909,-702,
1493,7,10,2023,15,7,49,861,-3548,315,3122,439,11647,-919,
1494,7,10,2023,15,7,49,871,-3983,-458,2641,199,11849,-1193,
1495,7,10,2023,15,7,49,881,-4668,-724,3090,370,11569,-969,
1496,7,10,2023,15,7,49,891,-4679,-1205,3109,385,11221,-602,
1497,7,10,2023,15,7,49,901,-5053,-1761,3117,595,10869,196,
1498,7,10,2023,15,7,49,911,-6558,-2238,3391,979,10233,1070,
1499,7,10,2023,15,7,49,921,-7657,-2011,3930,1401,8803,1697,
1500,7,10,2023,15,7,49,931,-6613,-3318,3848,1483,6708,2020,
1501,7,10,2023,15,7,49,941,-3518,-3025,3137,2059,5029,2506,
1502,7,10,2023,15,7,49,951,1212,-2024,3073,2516,3805,2772,
1503,7,10,2023,15,7,49,961,2697,2046,4700,2165,3030,2929,
1504,7,10,2023,15,7,49,971,4537,3882,4338,-113,1450,3463,
1505,7,10,2023,15,7,49,981,-4724,3058,10088,-2593,-2595,5341,
1506,7,10,2023,15,7,49,991,1436,-4406,5506,-5207,-5500,4704,
1507,7,10,2023,15,7,50,1,3782,-4897,647,-4204,-5563,4549,
1508,7,10,2023,15,7,50,11,2060,-5644,1603,-3177,-6804,3417,
1509,7,10,2023,15,7,50,21,1415,-2874,3498,-1812,-7008,2494,
1510,7,10,2023,15,7,50,31,-169,-2427,2509,-2245,-5396,727,
1511,7,10,2023,15,7,50,41,-731,-1814,2536,-3034,-6804,-910,
1512,7,10,2023,15,7,50,51,303,-2224,3374,-3777,-7953,-2384,
1513,7,10,2023,15,7,50,61,-182,-2034,2206,-3868,-6407,-3383,
1514,7,10,2023,15,7,50,71,-576,-1364,1664,-3448,-6744,-3782,
1515,7,10,2023,15,7,50,81,297,-693,2707,-2962,-7554,-3756,
1516,7,10,2023,15,7,50,91,348,914,2152,-2402,-5801,-3151,
1517,7,10,2023,15,7,50,101,66,1908,1468,-2430,-4958,-2391,
1518,7,10,2023,15,7,50,111,355,2824,2626,-2933,-5168,-1367,
1519,7,10,2023,15,7,50,121,-62,2764,2955,-3867,-3389,-534,
1520,7,10,2023,15,7,50,131,-1512,2361,2500,-4755,-1756,42,
1521,7,10,2023,15,7,50,141,-2465,1691,3217,-5498,-1721,125,
1522,7,10,2023,15,7,50,151,-3941,1761,3648,-5933,-379,-272,
1523,7,10,2023,15,7,50,161,-6464,1495,2600,-6585,1414,-1149,
1524,7,10,2023,15,7,50,171,-8666,112,2526,-7159,1094,-2468,
1525,7,10,2023,15,7,50,181,-10380,-1628,2734,-6716,886,-3715,
1526,7,10,2023,15,7,50,191,-12430,-3102,1517,-5058,1467,-4563,
1527,7,10,2023,15,7,50,201,-13452,-3177,477,-2467,292,-4841,
1528,7,10,2023,15,7,50,211,-12806,-2116,33,188,-1335,-4700,
1529,7,10,2023,15,7,50,221,-12059,-401,-1249,2331,-1811,-4290,
1530,7,10,2023,15,7,50,231,-9782,995,-3131,3389,-2792,-3826,
1531,7,10,2023,15,7,50,251,-4915,2635,-4576,2912,-2363,-2682,
1532,7,10,2023,15,7,50,261,-4622,2360,-5228,1724,-291,-2384,
1533,7,10,2023,15,7,50,271,-5526,1364,-5121,461,1273,-2286,
1534,7,10,2023,15,7,50,281,-6531,134,-4709,-327,2334,-2119,
1535,7,10,2023,15,7,50,291,-7169,-75,-4480,-404,2742,-1861,
1536,7,10,2023,15,7,50,301,-5051,1460,-3941,-268,1857,-1462,
1537,7,10,2023,15,7,50,311,-3678,2055,-3562,-370,2507,-1092,
1538,7,10,2023,15,7,50,321,-6434,-2983,-1184,-397,3786,-889,
1539,7,10,2023,15,7,50,331,-24080,-23083,12296,4315,1957,-917,
1540,7,10,2023,15,7,50,341,-16959,12846,4655,17239,-7728,2035,
1541,7,10,2023,15,7,50,351,-8033,13052,1099,6581,-12185,-455,
1542,7,10,2023,15,7,50,361,620,-11213,2150,-2605,-15720,-813,
1543,7,10,2023,15,7,50,371,4436,-7623,8113,3731,-13357,613,
1544,7,10,2023,15,7,50,381,4383,10961,9065,5963,-9401,3051,
1545,7,10,2023,15,7,50,391,-2273,-9619,3200,-2342,-4711,419,
1546,7,10,2023,15,7,50,401,-5873,1513,1327,3656,-3436,3142,
1547,7,10,2023,15,7,50,411,1178,857,5646,2584,-9231,1776,
1548,7,10,2023,15,7,50,421,391,603,7658,1961,-5483,1614,
1549,7,10,2023,15,7,50,431,-3147,1272,1769,1684,1290,1043,
1550,7,10,2023,15,7,50,441,-1954,1061,3842,726,-3531,635,
1551,7,10,2023,15,7,50,451,1,3,6862,-48,-3312,1,
1552,7,10,2023,15,7,50,461,-2473,-204,2964,-3,2416,-125,
1553,7,10,2023,15,7,50,471,-3047,-884,1969,-91,248,-332,
1554,7,10,2023,15,7,50,481,-987,-662,5329,-57,-2535,-95,
1555,7,10,2023,15,7,50,491,-1804,-1280,3612,-45,1113,-142,
1556,7,10,2023,15,7,50,501,-3143,-1276,1632,203,1106,133,
1557,7,10,2023,15,7,50,511,-1776,-1644,3986,329,-1966,317,
1558,7,10,2023,15,7,50,521,-1788,-895,3959,647,-353,676,
1559,7,10,2023,15,7,50,531,-2713,-571,2406,659,542,676,
1560,7,10,2023,15,7,50,541,-1805,-269,3832,539,-1424,625,
1561,7,10,2023,15,7,50,551,-1315,-364,4458,404,-685,477,
1562,7,10,2023,15,7,50,561,-2159,-168,3219,375,769,419,
1563,7,10,2023,15,7,50,571,-2051,-157,3542,211,-152,305,
1564,7,10,2023,15,7,50,581,-1765,-350,4065,59,-190,149,
1565,7,10,2023,15,7,50,591,-2252,-440,3282,22,717,79,
1566,7,10,2023,15,7,50,601,-2271,-632,3281,-5,174,54,
1567,7,10,2023,15,7,50,611,-2040,-725,3753,28,-139,68,
1568,7,10,2023,15,7,50,621,-2400,-864,3264,105,386,110,
1569,7,10,2023,15,7,50,631,-2521,-810,3155,250,-33,223,
1570,7,10,2023,15,7,50,641,-2248,-752,3482,389,-519,310,
1571,7,10,2023,15,7,50,651,-2039,-768,3175,472,-341,367,
1572,7,10,2023,15,7,50,661,-1717,-1090,3206,440,-577,416,
1573,7,10,2023,15,7,50,671,-1596,-724,3674,458,-801,578,
1574,7,10,2023,15,7,50,681,-1723,-512,3571,384,-345,618,
1575,7,10,2023,15,7,50,691,-1906,-525,3417,307,-204,564,
1576,7,10,2023,15,7,50,701,-1980,-179,3607,297,-380,557,
1577,7,10,2023,15,7,50,711,-2053,189,3603,236,-171,504,
1578,7,10,2023,15,7,50,721,-2123,157,3589,96,-69,319,
1579,7,10,2023,15,7,50,731,-1933,-231,3755,-1,-74,126,
1580,7,10,2023,15,7,50,741,-1838,-425,3780,4,84,87,
1581,7,10,2023,15,7,50,751,-1923,-436,3557,38,303,108,
1582,7,10,2023,15,7,50,761,-1838,-663,3343,16,337,125,
1583,7,10,2023,15,7,50,771,-1632,-488,3562,36,107,292,
1584,7,10,2023,15,7,50,781,-1479,-610,3738,14,294,337,
1585,7,10,2023,15,7,50,791,-1574,-629,3745,71,594,454,
1586,7,10,2023,15,7,50,801,-1817,-534,3628,110,830,575,
1587,7,10,2023,15,7,50,811,-1991,-108,3619,165,983,717,
1588,7,10,2023,15,7,50,821,-2130,40,3653,64,1090,665,
1589,7,10,2023,15,7,50,831,-2154,-122,3510,-58,1279,540,
1590,7,10,2023,15,7,50,841,-2371,-406,3491,-123,1280,506,
1591,7,10,2023,15,7,50,851,-2163,-650,3645,-140,1264,640,
1592,7,10,2023,15,7,50,861,-1669,-730,3924,-100,1313,806,
1593,7,10,2023,15,7,50,871,-2096,-581,3499,36,1674,931,
1594,7,10,2023,15,7,50,881,-2395,-377,3324,85,1813,1059,
1595,7,10,2023,15,7,50,891,-2351,-361,3434,69,1755,1120,
1596,7,10,2023,15,7,50,901,-1839,-519,3679,49,1977,1167,
1597,7,10,2023,15,7,50,911,-1300,-688,4197,74,2390,1227,
1598,7,10,2023,15,7,50,921,-1813,-461,4057,167,3286,1247,
1599,7,10,2023,15,7,50,931,-1840,-45,4074,153,4088,1210,
1600,7,10,2023,15,7,50,941,-1708,36,4150,20,4951,1038,
1601,7,10,2023,15,7,50,951,-1157,-42,4457,-83,5856,778,
1602,7,10,2023,15,7,50,961,-839,-216,4739,-126,7133,502,
1603,7,10,2023,15,7,50,971,-1202,-499,4477,-38,8790,184,
1604,7,10,2023,15,7,50,981,-1522,-330,4317,167,10120,54,
1605,7,10,2023,15,7,50,991,-1997,-934,4390,175,11149,7,
1606,7,10,2023,15,7,51,1,-2663,-1651,4278,474,12247,122,
1607,7,10,2023,15,7,51,11,-3683,-1688,4328,1086,12613,483,
1608,7,10,2023,15,7,51,21,-4394,-1802,4356,1363,12199,927,
1609,7,10,2023,15,7,51,31,-4043,-2558,4302,1522,11576,1436,
1610,7,10,2023,15,7,51,41,-3730,-3982,3912,1844,10683,2494,
1611,7,10,2023,15,7,51,51,-3316,-4972,2972,2671,10244,3361,
1612,7,10,2023,15,7,51,61,2121,-4652,762,4288,8693,3503,
1613,7,10,2023,15,7,51,71,4351,-579,2609,5702,6825,3153,
1614,7,10,2023,15,7,51,81,1025,4431,6971,4607,4927,2452,
1615,7,10,2023,15,7,51,91,-5787,4464,10747,381,925,1746,
1616,7,10,2023,15,7,51,111,2821,-3678,2788,-4582,-5568,406,
1617,7,10,2023,15,7,51,121,2452,-5771,667,-3968,-6034,-353,
1618,7,10,2023,15,7,51,131,2286,-3736,1889,-1865,-7285,-353,
1619,7,10,2023,15,7,51,141,978,-2619,2539,-957,-6093,-993,
1620,7,10,2023,15,7,51,151,-579,-471,2296,-859,-5757,-1508,
1621,7,10,2023,15,7,51,161,-72,-450,3047,-1797,-7391,-2358,
1622,7,10,2023,15,7,51,171,150,-266,3023,-2542,-7079,-2857,
1623,7,10,2023,15,7,51,181,-388,-601,1807,-2922,-6280,-3192,
1624,7,10,2023,15,7,51,191,-242,-784,2177,-2788,-7038,-3228,
1625,7,10,2023,15,7,51,201,-85,-428,2827,-2231,-6576,-2929,
1626,7,10,2023,15,7,51,211,-600,65,2414,-1669,-5180,-2500,
1627,7,10,2023,15,7,51,221,-699,852,2778,-1267,-5007,-1881,
1628,7,10,2023,15,7,51,231,-752,1191,3754,-1336,-4374,-1344,
1629,7,10,2023,15,7,51,241,-2132,1550,3688,-1706,-2471,-898,
1630,7,10,2023,15,7,51,251,-3876,1650,3438,-2315,-1398,-921,
1631,7,10,2023,15,7,51,261,-5883,2198,3962,-3048,-825,-1255,
1632,7,10,2023,15,7,51,271,-8370,1932,3581,-4125,365,-2058,
1633,7,10,2023,15,7,51,281,-11032,938,2611,-4949,757,-2953,
1634,7,10,2023,15,7,51,291,-12552,12,1907,-4991,-5,-3514,
1635,7,10,2023,15,7,51,301,-12953,-427,979,-4245,-512,-3658,
1636,7,10,2023,15,7,51,311,-12568,-818,-478,-3053,-987,-3535,
1637,7,10,2023,15,7,51,321,-10876,-1210,-2303,-1505,-1738,-3178,
1638,7,10,2023,15,7,51,331,-8740,-1234,-3971,335,-1898,-2749,
1639,7,10,2023,15,7,51,341,-6832,-774,-5040,2087,-1479,-2335,
1640,7,10,2023,15,7,51,351,-5501,-295,-5245,3205,-576,-2162,
1641,7,10,2023,15,7,51,361,-5624,-227,-5015,3590,1003,-2220,
1642,7,10,2023,15,7,51,371,-6317,-172,-4710,3604,2360,-2331,
1643,7,10,2023,15,7,51,381,-6874,312,-3792,3338,2674,-2459,
1644,7,10,2023,15,7,51,391,-6983,1137,-2901,2599,2851,-2600,
1645,7,10,2023,15,7,51,401,-6555,1610,-3119,1291,2906,-2737,
1646,7,10,2023,15,7,51,411,-5109,2048,-2566,130,2088,-2424,
1647,7,10,2023,15,7,51,421,-3902,2070,-1944,-948,2555,-1821,
1648,7,10,2023,15,7,51,431,-3639,2099,-2068,-1699,3943,-897,
1649,7,10,2023,15,7,51,441,-5482,-2360,-438,-2384,4413,-316,
1650,7,10,2023,15,7,51,451,-23625,-25035,14933,1116,2888,-1136,
1651,7,10,2023,15,7,51,461,-15746,8895,5057,15763,-7464,1315,
1652,7,10,2023,15,7,51,471,-5150,14521,-1187,7320,-11109,-377,
1653,7,10,2023,15,7,51,481,-2431,-12089,3017,-2731,-14982,-429,
1654,7,10,2023,15,7,51,491,2499,-6680,6784,3535,-12428,1067,
1655,7,10,2023,15,7,51,501,3812,9492,8574,5549,-10333,2377,
1656,7,10,2023,15,7,51,511,921,-5937,5259,-1090,-6768,657,
1657,7,10,2023,15,7,51,521,-4942,-1332,1633,2293,-2787,2624,
1658,7,10,2023,15,7,51,531,-2450,2200,2924,3138,-6942,2176,
1659,7,10,2023,15,7,51,541,1419,618,7328,2099,-8941,1397,
1660,7,10,2023,15,7,51,551,-1271,380,4662,1542,-1161,1099,
1661,7,10,2023,15,7,51,561,-2875,-587,1579,860,-106,808,
1662,7,10,2023,15,7,51,571,-1008,954,5465,816,-4698,794,
1663,7,10,2023,15,7,51,581,-387,-217,5777,178,-1523,46,
1664,7,10,2023,15,7,51,591,-2434,152,2418,390,1780,-107,
1665,7,10,2023,15,7,51,601,-1812,-473,3504,-104,-1259,-268,
1666,7,10,2023,15,7,51,611,-948,-315,5268,-329,-1353,-180,
1667,7,10,2023,15,7,51,621,-2436,-909,2814,-346,1678,-282,
1668,7,10,2023,15,7,51,631,-2723,-985,2449,-244,56,-154,
1669,7,10,2023,15,7,51,641,-1396,-1034,4498,-185,-1608,-66,
1670,7,10,2023,15,7,51,651,-1903,-924,3570,-42,535,11,
1671,7,10,2023,15,7,51,661,-2533,-872,2589,70,458,84,
1672,7,10,2023,15,7,51,671,-1682,-485,4134,131,-1249,176,
1673,7,10,2023,15,7,51,681,-1653,-456,4043,159,-87,162,
1674,7,10,2023,15,7,51,691,-2288,-526,2968,219,588,147,
1675,7,10,2023,15,7,51,701,-1869,-666,3728,190,-610,173,
1676,7,10,2023,15,7,51,711,-1673,-724,3972,186,-199,187,
1677,7,10,2023,15,7,51,721,-2158,-593,3170,215,547,205,
1678,7,10,2023,15,7,51,731,-1938,-567,3475,151,-147,199,
1679,7,10,2023,15,7,51,741,-1682,-590,3866,110,-158,197,
1680,7,10,2023,15,7,51,751,-1971,-541,3405,128,424,197,
1681,7,10,2023,15,7,51,761,-1966,-516,3413,85,114,190,
1682,7,10,2023,15,7,51,771,-1785,-489,3726,30,-93,169,
1683,7,10,2023,15,7,51,781,-1904,-454,3537,25,248,146,
1684,7,10,2023,15,7,51,791,-1967,-617,3390,-17,214,124,
1685,7,10,2023,15,7,51,801,-1819,-755,3541,-25,31,147,
1686,7,10,2023,15,7,51,811,-1784,-512,3554,23,130,213,
1687,7,10,2023,15,7,51,821,-1800,-364,3582,-31,157,208,
1688,7,10,2023,15,7,51,831,-1730,-722,3632,-135,239,140,
1689,7,10,2023,15,7,51,841,-1821,-720,3551,-83,454,214,
1690,7,10,2023,15,7,51,851,-1869,-692,3555,-49,461,276,
1691,7,10,2023,15,7,51,861,-1853,-542,3635,-5,511,338,
1692,7,10,2023,15,7,51,871,-1882,-536,3598,14,704,345,
1693,7,10,2023,15,7,51,881,-1863,-250,3651,40,776,379,
1694,7,10,2023,15,7,51,891,-1894,-151,3708,-31,866,342,
1695,7,10,2023,15,7,51,901,-2156,-145,3536,-89,1125,260,
1696,7,10,2023,15,7,51,911,-2195,-432,3428,-197,1121,196,
1697,7,10,2023,15,7,51,921,-2130,-531,3479,-205,986,223,
1698,7,10,2023,15,7,51,931,-2202,-683,3373,-174,1050,266,
1699,7,10,2023,15,7,51,941,-2190,-839,3332,-130,957,390,
1700,7,10,2023,15,7,51,951,-1887,-813,3530,-59,846,586,
1701,7,10,2023,15,7,51,971,-1876,-790,3609,6,1295,861,
1702,7,10,2023,15,7,51,981,-1871,-737,3646,12,1482,1018,
1703,7,10,2023,15,7,51,991,-1962,-612,3569,56,1726,1134,
1704,7,10,2023,15,7,52,1,-2410,-270,3407,122,1913,1131,
1705,7,10,2023,15,7,52,11,-2815,-241,3099,83,1920,1035,
1706,7,10,2023,15,7,52,21,-3008,-191,3071,89,1716,979,
1707,7,10,2023,15,7,52,31,-2525,-428,3375,48,1438,960,
1708,7,10,2023,15,7,52,41,-2106,-633,3658,49,1502,996,
1709,7,10,2023,15,7,52,51,-1904,-652,3652,126,1925,1054,
1710,7,10,2023,15,7,52,61,-1576,-724,4002,204,2508,1080,
1711,7,10,2023,15,7,52,71,-820,-566,4649,219,3353,1142,
1712,7,10,2023,15,7,52,81,-639,-582,4805,157,4892,1209,
1713,7,10,2023,15,7,52,91,-803,-232,4692,187,6642,1152,
1714,7,10,2023,15,7,52,101,-863,-51,4715,82,8283,897,
1715,7,10,2023,15,7,52,111,-1092,-149,4710,-135,10216,596,
1716,7,10,2023,15,7,52,121,-1017,-784,4575,-337,12180,338,
1717,7,10,2023,15,7,52,131,-1280,-1689,4621,-197,13880,140,
1718,7,10,2023,15,7,52,141,-2774,-1750,4596,745,15286,361,
1719,7,10,2023,15,7,52,151,-4992,-458,4518,1657,15786,854,
1720,7,10,2023,15,7,52,161,-5127,221,4644,1308,14870,1069,
1721,7,10,2023,15,7,52,171,-7223,-1405,5823,264,13693,1533,
1722,7,10,2023,15,7,52,181,-8557,-3024,5162,449,12625,2187,
1723,7,10,2023,15,7,52,191,-4666,-3641,4266,1314,9165,2371,
1724,7,10,2023,15,7,52,201,4066,-4446,4100,2143,6250,2250,
1725,7,10,2023,15,7,52,211,9404,-695,3109,3891,6644,2031,
1726,7,10,2023,15,7,52,221,-3673,2691,5676,4649,6112,2069,
1727,7,10,2023,15,7,52,231,-6671,2582,10317,2985,-838,2822,
1728,7,10,2023,15,7,52,241,4505,-2643,7745,-108,-7751,1616,
1729,7,10,2023,15,7,52,251,4622,-3010,894,127,-3739,1791,
1730,7,10,2023,15,7,52,261,2417,-4083,-977,545,-4998,1364,
1731,7,10,2023,15,7,52,271,3190,-2387,3916,1419,-8804,1230,
1732,7,10,2023,15,7,52,281,1235,-2346,3113,1305,-4714,279,
1733,7,10,2023,15,7,52,291,-1054,-1626,569,983,-4763,-613,
1734,7,10,2023,15,7,52,301,1233,-2313,3363,329,-9623,-1659,
1735,7,10,2023,15,7,52,311,1351,-2669,3446,237,-7354,-2414,
1736,7,10,2023,15,7,52,321,-808,-2254,399,565,-5264,-2949,
1737,7,10,2023,15,7,52,331,322,-1559,2248,672,-8803,-3469,
1738,7,10,2023,15,7,52,341,1024,-794,3915,488,-7785,-3719,
1739,7,10,2023,15,7,52,351,-1174,-731,1951,-32,-4576,-3873,
1740,7,10,2023,15,7,52,361,-1677,-770,3046,-659,-6443,-3808,
1741,7,10,2023,15,7,52,371,-1134,-1482,4873,-1243,-6412,-3755,
1742,7,10,2023,15,7,52,381,-2790,-2120,2983,-1434,-3109,-3613,
1743,7,10,2023,15,7,52,391,-3838,-3082,2580,-1468,-3460,-3506,
1744,7,10,2023,15,7,52,401,-4029,-4239,4389,-1347,-3673,-3571,
1745,7,10,2023,15,7,52,411,-6355,-5087,3398,-808,-307,-3998,
1746,7,10,2023,15,7,52,421,-9008,-4797,2575,202,519,-4801,
1747,7,10,2023,15,7,52,431,-10467,-4008,4036,1010,-649,-5764,
1748,7,10,2023,15,7,52,441,-12645,-3253,3703,1639,528,-6518,
1749,7,10,2023,15,7,52,451,-14422,-2650,1897,2195,342,-6661,
1750,7,10,2023,15,7,52,461,-13483,-2369,1372,2765,-2258,-6247,
1751,7,10,2023,15,7,52,471,-10713,-1708,-393,3776,-2961,-5467,
1752,7,10,2023,15,7,52,481,-7962,-1255,-3403,5071,-2669,-4340,
1753,7,10,2023,15,7,52,491,-5555,-837,-4464,6179,-3047,-2968,
1754,7,10,2023,15,7,52,501,-5034,-35,-4277,6751,-1552,-1758,
1755,7,10,2023,15,7,52,511,-6447,-216,-4873,6313,876,-1186,
1756,7,10,2023,15,7,52,521,-8029,-136,-4455,5308,1234,-1260,
1757,7,10,2023,15,7,52,531,-8790,30,-4113,3836,1098,-1969,
1758,7,10,2023,15,7,52,541,-8571,895,-5387,2243,1148,-2609,
1759,7,10,2023,15,7,52,551,-6155,2182,-5821,549,-46,-2978,
1760,7,10,2023,15,7,52,561,-3330,2392,-5052,-1185,329,-3086,
1761,7,10,2023,15,7,52,571,-2294,1549,-5350,-2217,3486,-2604,
1762,7,10,2023,15,7,52,581,-4698,-887,-5653,-2074,5739,-1498,
1763,7,10,2023,15,7,52,591,-26619,-13562,13484,1048,7574,-229,
1764,7,10,2023,15,7,52,601,-13865,9166,5219,7564,-8346,254,
1765,7,10,2023,15,7,52,611,3636,427,-16197,1860,-13152,-1247,
1766,7,10,2023,15,7,52,621,-6437,-9462,6280,477,-13473,-844,
1767,7,10,2023,15,7,52,631,12655,685,11589,3763,-15624,1369,
1768,7,10,2023,15,7,52,641,1339,-2292,6512,690,-6505,1340,
1769,7,10,2023,15,7,52,651,-8495,-1818,1725,1265,-1430,1637,
1770,7,10,2023,15,7,52,661,44,-1902,1129,2553,-5429,1656,
1771,7,10,2023,15,7,52,671,2309,2223,9578,2648,-9284,2295,
1772,7,10,2023,15,7,52,681,-2568,-285,3032,1613,961,1407,
1773,7,10,2023,15,7,52,691,-2602,2584,2757,1746,-1489,1477,
1774,7,10,2023,15,7,52,701,147,921,7149,174,-4248,420,
1775,7,10,2023,15,7,52,711,-1411,760,4606,90,1891,-30,
1776,7,10,2023,15,7,52,721,-3267,11,1644,-287,2195,-422,
1777,7,10,2023,15,7,52,731,-1407,-91,4971,-634,-1936,-551,
1778,7,10,2023,15,7,52,741,-1312,-759,4701,-824,975,-702,
1779,7,10,2023,15,7,52,751,-3182,-1172,1585,-833,2921,-717,
1780,7,10,2023,15,7,52,761,-2245,-1120,3439,-733,-717,-524,
1781,7,10,2023,15,7,52,771,-1285,-1145,4734,-624,-234,-415,
1782,7,10,2023,15,7,52,781,-2715,-1004,2388,-423,2263,-266,
1783,7,10,2023,15,7,52,791,-2513,-977,2854,-296,107,-167,
1784,7,10,2023,15,7,52,801,-1572,-739,4516,-160,-690,-63,
1785,7,10,2023,15,7,52,811,-2515,-665,2995,-105,1432,-51,
1786,7,10,2023,15,7,52,831,-1940,-654,3980,-70,-872,-121,
1787,7,10,2023,15,7,52,841,-2243,-925,3309,-33,451,-130,
1788,7,10,2023,15,7,52,851,-2665,-1084,2616,53,271,-33,
1789,7,10,2023,15,7,52,861,-2113,-992,3589,176,-974,88,
1790,7,10,2023,15,7,52,871,-2155,-1000,3424,292,-335,178,
1791,7,10,2023,15,7,52,881,-2493,-893,2819,410,-190,285,
1792,7,10,2023,15,7,52,891,-2114,-573,3511,503,-1172,370,
1793,7,10,2023,15,7,52,901,-2009,-421,3707,509,-889,336,
1794,7,10,2023,15,7,52,911,-2324,-226,3285,465,-472,235,
1795,7,10,2023,15,7,52,921,-2108,-255,3565,310,-965,76,
1796,7,10,2023,15,7,52,931,-1959,-208,3765,182,-857,-34,
1797,7,10,2023,15,7,52,941,-2140,-6,3486,84,-437,-142,
1798,7,10,2023,15,7,52,951,-2006,-76,3548,-125,-547,-349,
1799,7,10,2023,15,7,52,961,-1814,-368,3773,-334,-460,-521,
1800,7,10,2023,15,7,52,971,-1761,-449,3586,-451,-25,-565,
1801,7,10,2023,15,7,52,981,-1652,-967,3398,-574,57,-595,
1802,7,10,2023,15,7,52,991,-1574,-1337,3468,-445,-37,-418,
1803,7,10,2023,15,7,53,1,-1669,-1473,3466,-222,16,-169,
1804,7,10,2023,15,7,53,11,-1851,-905,3524,10,22,107,
1805,7,10,2023,15,7,53,21,-1855,-510,3655,44,19,172,
1806,7,10,2023,15,7,53,31,-1885,-512,3673,-27,171,103,
1807,7,10,2023,15,7,53,41,-1937,-352,3638,-79,339,63,
1808,7,10,2023,15,7,53,51,-1896,-56,3753,-201,368,-17,
1809,7,10,2023,15,7,53,61,-1783,-118,3768,-415,563,-194,
1810,7,10,2023,15,7,53,71,-1850,-178,3683,-634,847,-341,
1811,7,10,2023,15,7,53,81,-1847,-390,3642,-853,1077,-472,
1812,7,10,2023,15,7,53,91,-1791,-546,3646,-954,1329,-550,
1813,7,10,2023,15,7,53,101,-1822,-806,3617,-974,1634,-592,
1814,7,10,2023,15,7,53,111,-1877,-775,3580,-936,1924,-578,
1815,7,10,2023,15,7,53,121,-1827,-938,3541,-963,2135,-559,
1816,7,10,2023,15,7,53,131,-1919,-935,3577,-906,2393,-472,
1817,7,10,2023,15,7,53,141,-1940,-1227,3501,-920,2729,-415,
1818,7,10,2023,15,7,53,151,-2009,-1317,3582,-801,2888,-259,
1819,7,10,2023,15,7,53,161,-1898,-1514,3598,-724,3097,-101,
1820,7,10,2023,15,7,53,171,-1806,-1460,3657,-543,3467,128,
1821,7,10,2023,15,7,53,181,-1591,-1460,3663,-295,4419,675,
1822,7,10,2023,15,7,53,191,-1380,-1462,3654,-121,5101,991,
1823,7,10,2023,15,7,53,201,-1093,-1385,3789,40,5898,1228,
1824,7,10,2023,15,7,53,211,-1060,-1545,3752,77,7057,1360,
1825,7,10,2023,15,7,53,221,-1214,-1520,3625,276,8369,1560,
1826,7,10,2023,15,7,53,231,-1388,-1528,3661,520,9704,1762,
1827,7,10,2023,15,7,53,241,-1596,-2257,3575,711,11148,2019,
1828,7,10,2023,15,7,53,251,-2282,-2066,4027,1353,12415,2583,
1829,7,10,2023,15,7,53,261,-3542,-1871,4904,1709,13645,3083,
1830,7,10,2023,15,7,53,271,-5879,-1042,5637,1824,14621,3676,
1831,7,10,2023,15,7,53,281,-7442,-1333,5675,1626,14825,4218,
1832,7,10,2023,15,7,53,291,-6842,-2649,6026,1760,14190,4633,
1833,7,10,2023,15,7,53,301,-6213,-3035,6764,2967,13443,5198,
1834,7,10,2023,15,7,53,311,-6977,-4370,6147,4349,13657,5632,
1835,7,10,2023,15,7,53,321,-6619,-4553,4930,6140,12956,5932,
1836,7,10,2023,15,7,53,331,-5278,-5714,5867,7729,10816,5714,
1837,7,10,2023,15,7,53,341,871,-3570,4450,9466,9551,4990,
1838,7,10,2023,15,7,53,351,3447,-1394,1154,10145,10670,4165,
1839,7,10,2023,15,7,53,361,-16930,1777,6846,10354,12633,3242,
1840,7,10,2023,15,7,53,371,-11718,1643,7350,8416,4089,1281,
1841,7,10,2023,15,7,53,381,-4626,-1506,12709,4758,-5755,-1248,
1842,7,10,2023,15,7,53,391,-2874,-3390,5129,3942,-1460,-1770,
1843,7,10,2023,15,7,53,401,-2050,-2922,66,4430,-3684,-1521,
1844,7,10,2023,15,7,53,411,1125,-2888,4372,4684,-9394,-1142,
1845,7,10,2023,15,7,53,421,239,-3065,3427,5341,-4551,-680,
1846,7,10,2023,15,7,53,431,-2377,-2083,-156,5877,-3087,194,
1847,7,10,2023,15,7,53,441,-605,-2149,3458,5519,-8721,413,
1848,7,10,2023,15,7,53,451,-811,-1917,5197,5108,-7347,554,
1849,7,10,2023,15,7,53,461,-3596,-2392,1853,4342,-5293,510,
1850,7,10,2023,15,7,53,471,-2691,-2473,3178,3646,-10396,511,
1851,7,10,2023,15,7,53,481,-1332,-3440,4732,3014,-11513,376,
1852,7,10,2023,15,7,53,491,-3067,-4231,1551,2876,-9038,537,
1853,7,10,2023,15,7,53,501,-3079,-4798,1125,3032,-11801,806,
1854,7,10,2023,15,7,53,511,-2108,-4891,3330,3312,-13474,1045,
1855,7,10,2023,15,7,53,521,-3802,-4860,2123,3481,-10929,1256,
1856,7,10,2023,15,7,53,531,-5015,-4755,1388,3215,-11943,1344,
1857,7,10,2023,15,7,53,541,-4283,-4726,3291,2650,-14214,1157,
1858,7,10,2023,15,7,53,551,-4868,-5064,2947,1964,-12767,768,
1859,7,10,2023,15,7,53,561,-5848,-5400,1773,1238,-12466,216,
1860,7,10,2023,15,7,53,571,-5638,-6003,2950,498,-14025,-680,
1861,7,10,2023,15,7,53,581,-6212,-6529,3217,122,-13046,-1852,
1862,7,10,2023,15,7,53,591,-7487,-6773,2179,62,-11874,-3282,
1863,7,10,2023,15,7,53,601,-7441,-6896,2498,111,-12532,-4987,
1864,7,10,2023,15,7,53,611,-7171,-6881,2810,341,-11737,-6913,
1865,7,10,2023,15,7,53,621,-7774,-6411,2299,677,-10066,-8897,
1866,7,10,2023,15,7,53,631,-8223,-5787,2719,844,-9586,-10835,
1867,7,10,2023,15,7,53,641,-8672,-5318,3290,861,-8804,-12630,
1868,7,10,2023,15,7,53,651,-9246,-5095,2840,950,-7620,-14154,
1869,7,10,2023,15,7,53,661,-9197,-4659,2628,1273,-7282,-15204,
1870,7,10,2023,15,7,53,671,-8891,-2792,2953,1822,-6793,-15687,
1871,7,10,2023,15,7,53,691,-8754,-4115,2197,1536,-4983,-15498,
1872,7,10,2023,15,7,53,701,-8187,-4459,1252,2496,-4550,-14269,
1873,7,10,2023,15,7,53,711,-8989,-3918,297,3558,-3769,-12867,
1874,7,10,2023,15,7,53,721,-9785,-1952,-98,3975,-3569,-10841,
1875,7,10,2023,15,7,53,731,-9302,493,-410,2686,-3647,-8878,
1876,7,10,2023,15,7,53,741,-8640,2188,-1181,-118,-3037,-7414,
1877,7,10,2023,15,7,53,751,-8102,1475,-2071,-3524,-2244,-6554,
1878,7,10,2023,15,7,53,761,-7952,-915,-2436,-5794,-1354,-5887,
1879,7,10,2023,15,7,53,771,-8657,-2771,-2446,-5977,-156,-4931,
1880,7,10,2023,15,7,53,781,-8824,-3562,-2303,-4561,461,-3919,
1881,7,10,2023,15,7,53,791,-7764,-3380,-1864,-2372,646,-3078,
1882,7,10,2023,15,7,53,801,-4481,-3882,-1503,-415,1300,-2667,
1883,7,10,2023,15,7,53,811,-2271,-4388,-1190,1631,2907,-3726,
1884,7,10,2023,15,7,53,821,-1991,6042,3670,4208,6972,-3791,
1885,7,10,2023,15,7,53,831,-861,2746,8290,87,5339,-6273,
1886,7,10,2023,15,7,53,841,1319,5189,6417,321,6624,-4025,
1887,7,10,2023,15,7,53,851,-3216,3980,3757,-206,10368,-2143,
1888,7,10,2023,15,7,53,861,-6845,6018,7639,274,6309,1215,
1889,7,10,2023,15,7,53,871,-3960,3221,9652,-462,3639,2116,
1890,7,10,2023,15,7,53,881,-3144,-657,4206,-794,7059,2481,
1891,7,10,2023,15,7,53,891,-4195,-4972,1452,-500,5954,2201,
1892,7,10,2023,15,7,53,901,-3985,-6393,4452,803,2599,2310,
1893,7,10,2023,15,7,53,911,-4514,-4760,5322,2599,3832,2588,
1894,7,10,2023,15,7,53,921,-5206,-532,3771,3737,4186,2736,
1895,7,10,2023,15,7,53,931,-3048,611,4497,2771,736,2031,
1896,7,10,2023,15,7,53,941,-1734,65,5852,1465,291,1272,
1897,7,10,2023,15,7,53,951,-3428,-813,4152,438,2853,546,
1898,7,10,2023,15,7,53,961,-3405,-601,2552,283,2098,424,
1899,7,10,2023,15,7,53,971,-1830,-826,4298,93,-568,314,
1900,7,10,2023,15,7,53,981,-1612,-1170,4518,73,551,276,
1901,7,10,2023,15,7,53,991,-2605,-846,2822,243,1948,354,
1902,7,10,2023,15,7,54,1,-2309,-653,3554,182,-15,363,
1903,7,10,2023,15,7,54,11,-1513,-650,4567,118,-244,339,
1904,7,10,2023,15,7,54,21,-2238,-705,3422,133,1344,278,
1905,7,10,2023,15,7,54,31,-2452,-757,3089,130,644,267,
1906,7,10,2023,15,7,54,41,-1733,-713,4134,156,-363,299,
1907,7,10,2023,15,7,54,51,-1937,-789,3780,220,618,297,
1908,7,10,2023,15,7,54,61,-2312,-819,3129,272,732,327,
1909,7,10,2023,15,7,54,71,-1920,-757,3771,305,-209,386,
1910,7,10,2023,15,7,54,81,-1879,-620,3855,353,143,398,
1911,7,10,2023,15,7,54,91,-2230,-493,3347,355,530,368,
1912,7,10,2023,15,7,54,101,-1993,-472,3637,303,-41,331,
1913,7,10,2023,15,7,54,111,-1800,-594,3791,272,13,301,
1914,7,10,2023,15,7,54,121,-1988,-607,3424,283,371,311,
1915,7,10,2023,15,7,54,131,-1941,-718,3464,309,86,343,
1916,7,10,2023,15,7,54,141,-1867,-881,3598,390,-40,416,
1917,7,10,2023,15,7,54,151,-2043,-707,3458,527,97,513,
1918,7,10,2023,15,7,54,161,-2089,-395,3527,586,-105,556,
1919,7,10,2023,15,7,54,171,-1963,-424,3651,543,-228,495,
1920,7,10,2023,15,7,54,181,-1962,-384,3589,538,-128,470,
1921,7,10,2023,15,7,54,191,-1941,-413,3573,509,-157,438,
1922,7,10,2023,15,7,54,201,-1918,-261,3663,468,-181,419,
1923,7,10,2023,15,7,54,211,-1917,-315,3634,385,-58,333,
1924,7,10,2023,15,7,54,221,-1966,-62,3636,348,-54,326,
1925,7,10,2023,15,7,54,231,-1870,-88,3747,201,-73,193,
1926,7,10,2023,15,7,54,241,-1887,-300,3672,98,106,113,
1927,7,10,2023,15,7,54,251,-1974,-444,3550,60,196,92,
1928,7,10,2023,15,7,54,261,-2002,-455,3574,68,119,114,
1929,7,10,2023,15,7,54,271,-1958,-610,3524,89,100,116,
1930,7,10,2023,15,7,54,281,-1937,-625,3522,150,56,167,
1931,7,10,2023,15,7,54,291,-1926,-309,3531,223,26,250,
1932,7,10,2023,15,7,54,301,-1886,144,3663,171,-36,227,
1933,7,10,2023,15,7,54,311,-1771,-231,3739,-34,121,11,
1934,7,10,2023,15,7,54,321,-1810,-579,3564,-57,364,-7,
1935,7,10,2023,15,7,54,331,-1838,-509,3558,-29,306,91,
1936,7,10,2023,15,7,54,341,-1910,-427,3645,-35,247,153,
1937,7,10,2023,15,7,54,351,-1921,-590,3567,-41,353,142,
1938,7,10,2023,15,7,54,361,-1943,-587,3529,4,328,238,
1939,7,10,2023,15,7,54,371,-1889,-337,3686,27,236,306,
1940,7,10,2023,15,7,54,381,-1816,-521,3676,-38,365,265,
1941,7,10,2023,15,7,54,391,-1839,-137,3728,-15,505,312,
1942,7,10,2023,15,7,54,401,-1761,40,3869,-152,592,226,
1943,7,10,2023,15,7,54,411,-1721,119,3920,-311,896,80,
1944,7,10,2023,15,7,54,421,-1704,11,3841,-506,1274,-81,
1945,7,10,2023,15,7,54,431,-1735,204,3928,-676,1494,-156,
1946,7,10,2023,15,7,54,441,-1763,191,3940,-912,1869,-331,
1947,7,10,2023,15,7,54,451,-1802,-159,3791,-1101,2283,-481,
1948,7,10,2023,15,7,54,461,-1840,-534,3781,-1212,2502,-486,
1949,7,10,2023,15,7,54,471,-1719,-616,3815,-1190,2785,-421,
1950,7,10,2023,15,7,54,481,-1824,-728,3834,-1158,3251,-347,
1951,7,10,2023,15,7,54,491,-1737,-940,3754,-1097,3745,-321,
1952,7,10,2023,15,7,54,501,-1653,-1003,3843,-927,4221,-266,
1953,7,10,2023,15,7,54,511,-1418,-1673,3688,-841,4888,-135,
1954,7,10,2023,15,7,54,521,-1371,-1492,3583,-361,5557,252,
1955,7,10,2023,15,7,54,531,-1449,-1101,3695,50,6188,589,
1956,7,10,2023,15,7,54,551,-1549,-1716,4010,474,7910,800,
1957,7,10,2023,15,7,54,561,-1381,-2955,3564,860,9007,1188,
1958,7,10,2023,15,7,54,571,-1801,-2862,3536,2057,10135,2059,
1959,7,10,2023,15,7,54,581,-1977,-2389,3763,3028,11024,3026,
1960,7,10,2023,15,7,54,591,-2820,-2543,4309,3652,12171,3969,
1961,7,10,2023,15,7,54,601,-4607,-2396,5192,4359,13220,4829,
1962,7,10,2023,15,7,54,611,-7010,-1561,6219,4905,13633,5472,
1963,7,10,2023,15,7,54,621,-8585,-1736,7093,5090,13293,5711,
1964,7,10,2023,15,7,54,631,-7264,-2175,6830,5653,12150,5873,
1965,7,10,2023,15,7,54,641,-6041,-2210,6549,6554,11466,5856,
1966,7,10,2023,15,7,54,651,-5447,-1712,6367,7140,11118,5471,
1967,7,10,2023,15,7,54,661,-4057,-3431,6096,6998,10325,4545,
1968,7,10,2023,15,7,54,671,1771,-3656,4111,7851,9442,3910,
1969,7,10,2023,15,7,54,681,-5916,541,4346,8866,9925,4175,
1970,7,10,2023,15,7,54,691,-15166,3844,8439,7221,7645,2913,
1971,7,10,2023,15,7,54,701,-5935,-340,9351,3455,-3215,546,
1972,7,10,2023,15,7,54,711,-1506,-3823,8163,1589,-3824,-693,
1973,7,10,2023,15,7,54,721,-2368,-3564,759,2193,-61,-891,
1974,7,10,2023,15,7,54,731,-1248,-3486,1299,2666,-5580,-1365,
1975,7,10,2023,15,7,54,741,919,-3286,4836,3346,-6863,-1607,
1976,7,10,2023,15,7,54,751,-1589,-3638,1228,4031,-1563,-1882,
1977,7,10,2023,15,7,54,761,-2874,-2813,552,4705,-4333,-1927,
1978,7,10,2023,15,7,54,771,-999,-2549,4683,4817,-8338,-2374,
1979,7,10,2023,15,7,54,781,-2266,-2204,3149,4787,-5201,-2773,
1980,7,10,2023,15,7,54,791,-3445,-2151,638,4470,-6301,-3123,
1981,7,10,2023,15,7,54,801,-1339,-2053,3093,4041,-10860,-3426,
1982,7,10,2023,15,7,54,811,-1237,-2032,2658,3694,-9164,-3571,
1983,7,10,2023,15,7,54,821,-2478,-1758,-215,3381,-8119,-3475,
1984,7,10,2023,15,7,54,831,-1273,-1538,1009,2871,-11284,-3306,
1985,7,10,2023,15,7,54,841,-739,-1821,1873,2313,-10489,-3081,
1986,7,10,2023,15,7,54,851,-2272,-1924,-102,1949,-8154,-2636,
1987,7,10,2023,15,7,54,861,-2455,-1901,619,1521,-9925,-2195,
1988,7,10,2023,15,7,54,871,-2367,-2059,2390,981,-10299,-1864,
1989,7,10,2023,15,7,54,881,-3983,-2237,1129,460,-8281,-1656,
1990,7,10,2023,15,7,54,891,-4265,-2569,346,-46,-9261,-1637,
1991,7,10,2023,15,7,54,901,-3214,-2980,843,-370,-10093,-1765,
1992,7,10,2023,15,7,54,911,-3475,-3357,-651,-363,-7860,-2072,
1993,7,10,2023,15,7,54,921,-3585,-2796,-1877,36,-6785,-2570,
1994,7,10,2023,15,7,54,931,-3333,-1487,-788,285,-6102,-3330,
1995,7,10,2023,15,7,54,941,-4250,-1069,-745,0,-3453,-4202,
1996,7,10,2023,15,7,54,951,-5617,-885,-1378,-192,-1481,-4787,
1997,7,10,2023,15,7,54,961,-6031,-260,-934,-188,-958,-4959,
1998,7,10,2023,15,7,54,971,-6664,117,-649,-233,326,-4930,
1999,7,10,2023,15,7,54,981,-7966,874,-1281,-158,1626,-4623,
2000,7,10,2023,15,7,54,991,-8742,1832,-1512,-193,1638,-4096,
2001,7,10,2023,15,7,55,1,-8870,2716,-1345,-522,1423,-3421,
2002,7,10,2023,15,7,55,11,-8829,2357,-1992,-1308,1567,-2701,
2003,7,10,2023,15,7,55,21,-8507,1708,-2515,-1961,1125,-1925,
2004,7,10,2023,15,7,55,31,-7219,773,-2884,-2252,545,-1496,
2005,7,10,2023,15,7,55,41,-5710,411,-3701,-2170,898,-1459,
2006,7,10,2023,15,7,55,51,-5097,-435,-4255,-2121,1458,-1829,
2007,7,10,2023,15,7,55,61,-4905,-1130,-4113,-1796,2180,-2229,
2008,7,10,2023,15,7,55,71,-5274,-1626,-4048,-1267,3388,-2672,
2009,7,10,2023,15,7,55,81,-6225,-1471,-3745,-502,4151,-3013,
2010,7,10,2023,15,7,55,91,-6997,-898,-2878,207,4153,-3199,
2011,7,10,2023,15,7,55,101,-7163,-50,-2250,596,3906,-3167,
2012,7,10,2023,15,7,55,111,-7153,963,-2035,508,3334,-2915,
2013,7,10,2023,15,7,55,121,-6537,1976,-1991,-75,2504,-2477,
2014,7,10,2023,15,7,55,131,-5438,2477,-2234,-1121,2123,-1892,
2015,7,10,2023,15,7,55,141,-4845,2417,-2578,-2490,2436,-1152,
2016,7,10,2023,15,7,55,151,-4674,1741,-2739,-3960,3018,-421,
2017,7,10,2023,15,7,55,161,-10827,-7922,1561,-4926,3558,-440,
2018,7,10,2023,15,7,55,171,-25811,-20902,15601,1207,-2097,-106,
2019,7,10,2023,15,7,55,181,-6869,13047,877,12889,-10866,2552,
2020,7,10,2023,15,7,55,191,-9379,-953,1989,3298,-10638,-247,
2021,7,10,2023,15,7,55,201,99,-5436,5612,1807,-15833,1756,
2022,7,10,2023,15,7,55,211,5963,-2559,8419,4407,-12242,2080,
2023,7,10,2023,15,7,55,221,2844,4422,7309,3927,-8414,3181,
2024,7,10,2023,15,7,55,231,-3287,-4164,3716,96,-5197,2129,
2025,7,10,2023,15,7,55,241,-5534,1849,1049,2789,-3687,2871,
2026,7,10,2023,15,7,55,251,1288,30,5723,1745,-9376,1833,
2027,7,10,2023,15,7,55,261,-173,-998,6334,1652,-4868,1869,
2028,7,10,2023,15,7,55,271,-3763,-236,1047,2008,-129,2047,
2029,7,10,2023,15,7,55,281,-1550,1218,4520,1888,-5407,1819,
2030,7,10,2023,15,7,55,291,-229,344,6560,1200,-3475,1041,
2031,7,10,2023,15,7,55,301,-2619,707,2739,1027,1495,692,
2032,7,10,2023,15,7,55,311,-2320,-32,3304,509,-1344,305,
2033,7,10,2023,15,7,55,321,-750,-145,5759,329,-2191,201,
2034,7,10,2023,15,7,55,331,-2117,-104,3484,263,1391,142,
2035,7,10,2023,15,7,55,341,-2461,-396,2718,134,458,85,
2036,7,10,2023,15,7,55,351,-1160,-501,4609,110,-1105,126,
2037,7,10,2023,15,7,55,361,-1599,-788,3693,145,955,183,
2038,7,10,2023,15,7,55,371,-2018,-774,3019,222,964,348,
2039,7,10,2023,15,7,55,381,-1348,-755,4216,286,-87,451,
2040,7,10,2023,15,7,55,391,-1678,-529,3871,378,1083,542,
2041,7,10,2023,15,7,55,411,-1610,-696,4033,424,718,569,
2042,7,10,2023,15,7,55,421,-1896,-439,3829,576,1495,610,
2043,7,10,2023,15,7,55,431,-2420,-290,3206,579,1871,635,
2044,7,10,2023,15,7,55,441,-2469,-86,3516,576,1242,665,
2045,7,10,2023,15,7,55,451,-2531,52,3488,505,1290,627,
2046,7,10,2023,15,7,55,461,-2615,118,2908,448,1332,577,
2047,7,10,2023,15,7,55,471,-2521,74,2781,375,830,451,
2048,7,10,2023,15,7,55,481,-2155,22,3099,281,414,353,
2049,7,10,2023,15,7,55,491,-1886,-404,3394,192,359,202,
2050,7,10,2023,15,7,55,501,-2064,-512,3398,243,575,199,
2051,7,10,2023,15,7,55,511,-2257,-657,3218,278,668,307,
2052,7,10,2023,15,7,55,521,-2500,-198,3119,350,542,537,
2053,7,10,2023,15,7,55,531,-2599,271,3157,294,339,651,
2054,7,10,2023,15,7,55,541,-2562,509,3413,193,134,543,
2055,7,10,2023,15,7,55,551,-2352,422,3650,76,181,340,
2056,7,10,2023,15,7,55,561,-1999,4,3829,-60,318,134,
2057,7,10,2023,15,7,55,571,-1893,-262,3627,-82,603,85,
2058,7,10,2023,15,7,55,581,-1995,-451,3413,-56,839,173,
2059,7,10,2023,15,7,55,591,-1744,-535,3600,-19,792,338,
2060,7,10,2023,15,7,55,601,-1906,-650,3540,48,1108,553,
2061,7,10,2023,15,7,55,611,-2048,-410,3545,111,1339,847,
2062,7,10,2023,15,7,55,621,-2041,-171,3657,113,1556,1084,
2063,7,10,2023,15,7,55,631,-1929,-4,3781,74,1944,1217,
2064,7,10,2023,15,7,55,641,-1890,10,3822,-12,2420,1240,
2065,7,10,2023,15,7,55,651,-2081,113,3864,-135,2946,1231,
2066,7,10,2023,15,7,55,661,-1972,229,4007,-351,3509,1073,
2067,7,10,2023,15,7,55,671,-2140,503,4036,-564,4318,804,
2068,7,10,2023,15,7,55,681,-1912,338,4378,-709,5243,414,
2069,7,10,2023,15,7,55,691,-1136,-172,4924,-685,6429,54,
2070,7,10,2023,15,7,55,701,-722,-481,5533,-443,8241,-111,
2071,7,10,2023,15,7,55,711,-787,-1153,5888,-64,10323,-75,
2072,7,10,2023,15,7,55,721,-837,-1843,5846,419,11965,103,
2073,7,10,2023,15,7,55,731,-1986,-2624,5836,940,13371,549,
2074,7,10,2023,15,7,55,741,-2218,-3165,4933,1570,14227,1310,
2075,7,10,2023,15,7,55,751,-1897,-3636,4529,1944,14022,2569,
2076,7,10,2023,15,7,55,761,-3577,-4298,4887,1997,13927,4165,
2077,7,10,2023,15,7,55,771,360,-7202,918,2589,13216,4303,
2078,7,10,2023,15,7,55,781,2447,-3691,1333,5942,10424,3998,
2079,7,10,2023,15,7,55,791,-900,4729,9238,6724,5126,2562,
2080,7,10,2023,15,7,55,801,-6329,4279,15578,1832,-119,952,
2081,7,10,2023,15,7,55,811,4365,-4074,5759,-3338,-4250,-762,
2082,7,10,2023,15,7,55,821,5438,-4792,423,-3326,-5472,-1019,
2083,7,10,2023,15,7,55,831,3633,-5839,1066,-2326,-6521,-1560,
2084,7,10,2023,15,7,55,841,1636,-2803,3242,-581,-6642,-1463,
2085,7,10,2023,15,7,55,851,-135,-1482,2697,-648,-5704,-1972,
2086,7,10,2023,15,7,55,861,138,-532,2385,-1510,-7369,-2537,
2087,7,10,2023,15,7,55,871,1374,-642,2484,-2616,-8201,-3054,
2088,7,10,2023,15,7,55,881,1224,-593,1067,-3318,-6688,-3458,
2089,7,10,2023,15,7,55,891,1307,-53,395,-3573,-6497,-3608,
2090,7,10,2023,15,7,55,901,1999,314,1214,-3679,-6322,-3558,
2091,7,10,2023,15,7,55,911,1372,590,1400,-3466,-4108,-2990,
2092,7,10,2023,15,7,55,921,-30,-26,1713,-3232,-2678,-2196,
2093,7,10,2023,15,7,55,931,-1238,-175,3298,-2749,-2322,-1338,
2094,7,10,2023,15,7,55,941,-3348,229,3874,-2341,-525,-987,
2095,7,10,2023,15,7,55,951,-6225,545,3343,-2476,1014,-1264,
2096,7,10,2023,15,7,55,961,-8190,72,3614,-3016,616,-2088,
2097,7,10,2023,15,7,55,971,-10275,-527,3766,-3353,912,-3108,
2098,7,10,2023,15,7,55,981,-12664,-1209,2461,-3321,1577,-3996,
2099,7,10,2023,15,7,55,991,-13594,-1209,1855,-2708,199,-4466,
2100,7,10,2023,15,7,56,1,-13259,-839,2021,-1867,-1175,-4617,
2101,7,10,2023,15,7,56,11,-13161,-689,620,-1003,-1339,-4496,
2102,7,10,2023,15,7,56,21,-12348,-521,-1521,-57,-2327,-4125,
2103,7,10,2023,15,7,56,31,-10172,388,-3253,975,-3566,-3574,
2104,7,10,2023,15,7,56,41,-7536,1143,-5372,1663,-3077,-3059,
2105,7,10,2023,15,7,56,51,-6176,1421,-6951,1925,-1937,-2558,
2106,7,10,2023,15,7,56,61,-6384,1734,-7441,1610,1426,-1644,
2107,7,10,2023,15,7,56,71,-7450,2919,-6544,996,2024,-1414,
2108,7,10,2023,15,7,56,81,-7486,3327,-5583,-252,2136,-1530,
2109,7,10,2023,15,7,56,91,-6224,3382,-5396,-1438,2336,-1408,
2110,7,10,2023,15,7,56,101,-4691,3022,-4431,-2140,2513,-781,
2111,7,10,2023,15,7,56,111,-4659,1043,-2800,-2147,3651,323,
2112,7,10,2023,15,7,56,121,-15867,-18333,7087,-715,4598,-15,
2113,7,10,2023,15,7,56,131,-21327,-18665,11238,12416,-4453,-405,
2114,7,10,2023,15,7,56,141,-3850,27923,506,23019,-9238,932,
2115,7,10,2023,15,7,56,151,-5921,10590,9288,3739,-14403,-1348,
2116,7,10,2023,15,7,56,161,3126,-15056,3288,-4844,-12810,-837,
2117,7,10,2023,15,7,56,171,274,-8303,2098,3427,-8206,1279,
2118,7,10,2023,15,7,56,181,2351,11011,9166,6246,-11898,3324,
2119,7,10,2023,15,7,56,191,-1237,-8110,4187,-1369,-5471,755,
2120,7,10,2023,15,7,56,201,-3897,3632,1025,3966,-3175,3056,
2121,7,10,2023,15,7,56,211,162,392,6079,1714,-9643,1301,
2122,7,10,2023,15,7,56,221,634,1271,7151,1674,-4552,1383,
2123,7,10,2023,15,7,56,231,-2574,965,2434,1049,1387,664,
2124,7,10,2023,15,7,56,241,-2100,626,3896,464,-2500,253,
2125,7,10,2023,15,7,56,251,1,-205,6470,-110,-2740,-219,
2126,7,10,2023,15,7,56,271,-2627,-530,2462,-510,865,-497,
2127,7,10,2023,15,7,56,281,-1124,-814,4873,-642,-1505,-417,
2128,7,10,2023,15,7,56,291,-1493,-1079,3983,-586,1126,-376,
2129,7,10,2023,15,7,56,301,-2751,-1261,2100,-408,1727,-252,
2130,7,10,2023,15,7,56,311,-1833,-1344,3574,-233,-790,-76,
2131,7,10,2023,15,7,56,321,-1616,-912,4146,-11,8,137,
2132,7,10,2023,15,7,56,331,-2563,-852,2609,82,1376,195,
2133,7,10,2023,15,7,56,341,-2163,-742,3313,154,-291,275,
2134,7,10,2023,15,7,56,351,-1628,-587,4259,214,-409,343,
2135,7,10,2023,15,7,56,361,-2496,-438,3016,273,984,384,
2136,7,10,2023,15,7,56,371,-2507,-309,3203,251,-79,363,
2137,7,10,2023,15,7,56,381,-1965,-483,4157,162,-587,227,
2138,7,10,2023,15,7,56,391,-2543,-330,3432,133,491,122,
2139,7,10,2023,15,7,56,401,-2512,-356,3209,57,-8,0,
2140,7,10,2023,15,7,56,411,-1647,-332,3733,41,-619,-77,
2141,7,10,2023,15,7,56,421,-1600,-706,3334,-85,48,-164,
2142,7,10,2023,15,7,56,431,-1827,-929,3160,-130,87,-141,
2143,7,10,2023,15,7,56,441,-1754,-886,3568,-100,-270,-36,
2144,7,10,2023,15,7,56,451,-1770,-1087,3313,-51,144,49,
2145,7,10,2023,15,7,56,461,-1863,-1015,3208,83,116,238,
