Packet #, Month, Day, Year, Hour, Minute, Second, MS, ACC X, ACC Y, ACC Z, GYR X, GYR Y, GYR Z
1,7,10,2023,15,7,28,706,0,0,0,0,0,0,
2,7,10,2023,15,7,28,716,0,0,0,0,0,0,
3,7,10,2023,15,7,28,726,0,0,0,0,0,0,
4,7,10,2023,15,7,28,736,0,0,0,0,0,0,
5,7,10,2023,15,7,28,746,0,0,0,0,0,0,
6,7,10,2023,15,7,28,756,0,0,0,0,0,0,
7,7,10,2023,15,7,28,766,-1788,1234,3442,-5,-5,7,
8,7,10,2023,15,7,28,776,-1784,1235,3430,-3,1,8,
9,7,10,2023,15,7,28,786,-1785,1229,3442,-3,7,5,
10,7,10,2023,15,7,28,796,-1788,1239,3440,-6,7,4,
11,7,10,2023,15,7,28,806,-1782,1239,3441,-6,5,2,
12,7,10,2023,15,7,28,816,-1782,1230,3434,-8,2,1,
13,7,10,2023,15,7,28,826,-1781,1222,3429,-7,4,3,
14,7,10,2023,15,7,28,836,-1766,1227,3438,-8,1,6,
15,7,10,2023,15,7,28,846,-1774,1231,3426,-12,6,1,
16,7,10,2023,15,7,28,856,-1783,1229,3431,-8,5,1,
17,7,10,2023,15,7,28,866,-1774,1229,3433,-8,-5,4,
18,7,10,2023,15,7,28,876,-1786,1230,3431,-7,4,2,
19,7,10,2023,15,7,28,886,-1780,1231,3447,-5,-5,5,
20,7,10,2023,15,7,28,896,-1779,1232,3435,-10,1,3,
21,7,10,2023,15,7,28,906,-1778,1231,3434,-12,1,0,
22,7,10,2023,15,7,28,916,-1776,1231,3439,-18,2,-1,
23,7,10,2023,15,7,28,926,-1780,1232,3438,-17,8,-3,
24,7,10,2023,15,7,28,936,-1781,1225,3445,-20,0,-6,
25,7,10,2023,15,7,28,946,-1784,1217,3441,-20,-4,-1,
26,7,10,2023,15,7,28,956,-1782,1216,3439,-16,-4,4,
27,7,10,2023,15,7,28,966,-1772,1211,3451,-10,-4,-1,
28,7,10,2023,15,7,28,976,-1781,1226,3438,-10,4,2,
29,7,10,2023,15,7,28,986,-1789,1221,3435,-11,-1,1,
30,7,10,2023,15,7,28,996,-1783,1218,3429,-7,5,2,
31,7,10,2023,15,7,29,6,-1776,1220,3446,-1,3,3,
32,7,10,2023,15,7,29,16,-1783,1225,3440,-4,7,5,
33,7,10,2023,15,7,29,26,-1782,1228,3441,-3,1,4,
34,7,10,2023,15,7,29,36,-1778,1227,3435,-2,5,3,
35,7,10,2023,15,7,29,46,-1779,1224,3442,-3,7,3,
36,7,10,2023,15,7,29,56,-1783,1228,3438,-7,7,6,
37,7,10,2023,15,7,29,66,-1786,1224,3436,-8,4,3,
38,7,10,2023,15,7,29,76,-1785,1225,3440,-7,3,3,
39,7,10,2023,15,7,29,86,-1780,1219,3442,-7,5,4,
40,7,10,2023,15,7,29,96,-1782,1221,3439,-9,0,3,
41,7,10,2023,15,7,29,106,-1776,1238,3435,-10,5,-1,
42,7,10,2023,15,7,29,116,-1789,1215,3435,-11,6,-4,
43,7,10,2023,15,7,29,126,-1784,1217,3441,-6,2,2,
44,7,10,2023,15,7,29,136,-1777,1240,3443,-5,7,2,
45,7,10,2023,15,7,29,146,-1787,1226,3440,-6,4,-3,
46,7,10,2023,15,7,29,156,-1778,1210,3448,-6,-2,0,
47,7,10,2023,15,7,29,166,-1786,1219,3440,-1,6,5,
48,7,10,2023,15,7,29,176,-1774,1222,3442,1,1,3,
49,7,10,2023,15,7,29,186,-1778,1220,3438,1,6,1,
50,7,10,2023,15,7,29,196,-1774,1228,3433,2,8,4,
51,7,10,2023,15,7,29,206,-1780,1225,3443,-4,17,-1,
52,7,10,2023,15,7,29,216,-1785,1223,3436,-7,13,-3,
53,7,10,2023,15,7,29,226,-1791,1221,3446,-9,9,-3,
54,7,10,2023,15,7,29,236,-1790,1223,3437,-7,9,-1,
55,7,10,2023,15,7,29,246,-1783,1224,3448,-8,4,-5,
56,7,10,2023,15,7,29,256,-1786,1218,3443,-9,6,-3,
57,7,10,2023,15,7,29,266,-1786,1220,3435,-5,7,-2,
58,7,10,2023,15,7,29,276,-1779,1215,3443,-5,5,-4,
59,7,10,2023,15,7,29,286,-1786,1211,3441,-6,4,-2,
60,7,10,2023,15,7,29,296,-1775,1214,3447,2,4,6,
61,7,10,2023,15,7,29,306,-1787,1217,3436,4,8,4,
62,7,10,2023,15,7,29,316,-1790,1227,3441,1,8,1,
63,7,10,2023,15,7,29,326,-1781,1227,3445,-4,8,1,
64,7,10,2023,15,7,29,336,-1787,1224,3444,-2,3,1,
65,7,10,2023,15,7,29,346,-1787,1221,3441,0,3,2,
66,7,10,2023,15,7,29,356,-1789,1218,3441,1,5,1,
67,7,10,2023,15,7,29,366,-1783,1217,3440,0,-1,2,
68,7,10,2023,15,7,29,376,-1785,1220,3432,-3,4,2,
69,7,10,2023,15,7,29,386,-1782,1226,3444,-1,4,3,
70,7,10,2023,15,7,29,396,-1786,1221,3443,0,7,3,
71,7,10,2023,15,7,29,406,-1790,1220,3436,0,3,1,
72,7,10,2023,15,7,29,416,-1785,1221,3436,-2,3,2,
73,7,10,2023,15,7,29,426,-1794,1220,3435,0,6,0,
74,7,10,2023,15,7,29,436,-1785,1214,3432,1,5,5,
75,7,10,2023,15,7,29,446,-1785,1223,3435,5,10,4,
76,7,10,2023,15,7,29,456,-1782,1220,3438,5,4,6,
77,7,10,2023,15,7,29,466,-1785,1220,3442,3,3,3,
78,7,10,2023,15,7,29,476,-1788,1221,3432,2,7,3,
79,7,10,2023,15,7,29,486,-1791,1221,3431,0,1,8,
80,7,10,2023,15,7,29,496,-1790,1212,3443,1,0,10,
81,7,10,2023,15,7,29,506,-1786,1219,3447,-5,0,6,
82,7,10,2023,15,7,29,516,-1792,1212,3443,-1,-1,2,
83,7,10,2023,15,7,29,526,-1785,1216,3438,1,-1,8,
84,7,10,2023,15,7,29,536,-1783,1216,3436,-2,2,7,
85,7,10,2023,15,7,29,546,-1780,1219,3443,3,1,8,
86,7,10,2023,15,7,29,566,-1777,1218,3440,3,1,5,
87,7,10,2023,15,7,29,576,-1784,1218,3435,4,7,5,
88,7,10,2023,15,7,29,586,-1786,1221,3439,1,-1,7,
89,7,10,2023,15,7,29,596,-1793,1217,3435,-1,5,4,
90,7,10,2023,15,7,29,606,-1783,1213,3438,-5,4,4,
91,7,10,2023,15,7,29,616,-1782,1222,3442,-2,-2,6,
92,7,10,2023,15,7,29,626,-1788,1223,3437,1,4,4,
93,7,10,2023,15,7,29,636,-1783,1220,3448,2,1,6,
94,7,10,2023,15,7,29,646,-1785,1219,3445,0,3,6,
95,7,10,2023,15,7,29,656,-1784,1218,3433,3,4,6,
96,7,10,2023,15,7,29,666,-1778,1210,3451,1,0,9,
97,7,10,2023,15,7,29,676,-1784,1209,3441,0,3,5,
98,7,10,2023,15,7,29,686,-1778,1215,3440,5,2,5,
99,7,10,2023,15,7,29,696,-1794,1219,3438,2,8,4,
100,7,10,2023,15,7,29,706,-1784,1217,3437,3,4,5,
101,7,10,2023,15,7,29,716,-1785,1214,3435,4,3,7,
102,7,10,2023,15,7,29,726,-1792,1215,3432,2,2,9,
103,7,10,2023,15,7,29,736,-1787,1227,3442,0,-5,8,
104,7,10,2023,15,7,29,746,-1784,1226,3439,0,-2,9,
105,7,10,2023,15,7,29,756,-1779,1219,3436,-1,-7,7,
106,7,10,2023,15,7,29,766,-1783,1222,3435,-2,-4,8,
107,7,10,2023,15,7,29,776,-1791,1210,3435,-3,0,3,
108,7,10,2023,15,7,29,786,-1782,1216,3445,-4,-2,8,
109,7,10,2023,15,7,29,796,-1783,1213,3438,-1,-7,10,
110,7,10,2023,15,7,29,806,-1780,1212,3441,-1,-8,9,
111,7,10,2023,15,7,29,816,-1787,1218,3452,0,-2,5,
112,7,10,2023,15,7,29,826,-1790,1229,3441,0,-4,5,
113,7,10,2023,15,7,29,836,-1782,1219,3446,-3,-9,6,
114,7,10,2023,15,7,29,846,-1785,1216,3440,-4,-4,7,
115,7,10,2023,15,7,29,856,-1780,1221,3450,-5,-6,7,
116,7,10,2023,15,7,29,866,-1782,1216,3441,-7,-4,6,
117,7,10,2023,15,7,29,876,-1783,1219,3442,-3,-2,10,
118,7,10,2023,15,7,29,886,-1776,1217,3441,-4,-5,14,
119,7,10,2023,15,7,29,896,-1803,1217,3439,-4,1,13,
120,7,10,2023,15,7,29,906,-1785,1206,3440,0,-8,15,
121,7,10,2023,15,7,29,916,-1767,1219,3451,0,-10,14,
122,7,10,2023,15,7,29,926,-1792,1223,3431,-2,-2,7,
123,7,10,2023,15,7,29,936,-1787,1215,3447,-4,-10,12,
124,7,10,2023,15,7,29,946,-1781,1210,3448,-2,-5,13,
125,7,10,2023,15,7,29,956,-1781,1219,3437,4,-5,14,
126,7,10,2023,15,7,29,966,-1780,1216,3444,4,-13,13,
127,7,10,2023,15,7,29,976,-1773,1216,3437,1,-6,18,
128,7,10,2023,15,7,29,986,-1777,1224,3444,3,-11,15,
129,7,10,2023,15,7,29,996,-1787,1215,3440,3,-6,13,
130,7,10,2023,15,7,30,6,-1774,1213,3448,-1,-8,13,
131,7,10,2023,15,7,30,16,-1783,1222,3457,0,-10,13,
132,7,10,2023,15,7,30,26,-1779,1214,3441,-1,-9,12,
133,7,10,2023,15,7,30,36,-1771,1211,3448,3,-12,17,
134,7,10,2023,15,7,30,46,-1780,1221,3457,7,-5,15,
135,7,10,2023,15,7,30,56,-1782,1217,3450,5,-2,16,
136,7,10,2023,15,7,30,66,-1768,1211,3453,11,-7,15,
137,7,10,2023,15,7,30,76,-1773,1216,3435,10,1,16,
138,7,10,2023,15,7,30,86,-1769,1227,3442,9,-3,13,
139,7,10,2023,15,7,30,96,-1782,1220,3449,9,-1,12,
140,7,10,2023,15,7,30,106,-1777,1216,3451,7,-2,10,
141,7,10,2023,15,7,30,116,-1778,1221,3429,12,2,14,
142,7,10,2023,15,7,30,126,-1781,1214,3447,2,-6,15,
143,7,10,2023,15,7,30,136,-1785,1221,3444,6,-3,11,
144,7,10,2023,15,7,30,146,-1774,1219,3446,2,-5,10,
145,7,10,2023,15,7,30,156,-1778,1213,3446,6,-4,9,
146,7,10,2023,15,7,30,166,-1781,1226,3442,3,-5,12,
147,7,10,2023,15,7,30,176,-1771,1218,3444,1,-3,13,
148,7,10,2023,15,7,30,186,-1768,1212,3442,5,-5,10,
149,7,10,2023,15,7,30,196,-1776,1221,3438,5,-4,10,
150,7,10,2023,15,7,30,206,-1784,1215,3442,4,-1,13,
151,7,10,2023,15,7,30,216,-1781,1215,3447,5,-8,12,
152,7,10,2023,15,7,30,226,-1779,1218,3440,6,-4,16,
153,7,10,2023,15,7,30,236,-1780,1223,3445,6,-4,17,
154,7,10,2023,15,7,30,246,-1765,1230,3445,7,-9,14,
155,7,10,2023,15,7,30,256,-1765,1225,3445,4,-3,14,
156,7,10,2023,15,7,30,266,-1780,1216,3442,4,-7,13,
157,7,10,2023,15,7,30,276,-1780,1227,3453,3,-3,9,
158,7,10,2023,15,7,30,286,-1774,1229,3452,2,-6,11,
159,7,10,2023,15,7,30,296,-1783,1221,3443,3,-4,11,
160,7,10,2023,15,7,30,306,-1779,1219,3449,1,-4,11,
161,7,10,2023,15,7,30,316,-1773,1221,3453,2,-3,12,
162,7,10,2023,15,7,30,326,-1775,1209,3444,-1,-2,10,
163,7,10,2023,15,7,30,336,-1778,1217,3446,1,-7,13,
164,7,10,2023,15,7,30,346,-1772,1218,3445,2,-4,11,
165,7,10,2023,15,7,30,356,-1771,1220,3455,6,-5,11,
166,7,10,2023,15,7,30,366,-1774,1221,3441,3,2,12,
167,7,10,2023,15,7,30,376,-1771,1222,3445,2,-4,12,
168,7,10,2023,15,7,30,386,-1766,1230,3449,6,-4,13,
169,7,10,2023,15,7,30,396,-1767,1224,3437,7,-2,12,
170,7,10,2023,15,7,30,406,-1767,1218,3447,5,4,11,
171,7,10,2023,15,7,30,426,-1777,1218,3455,4,1,9,
172,7,10,2023,15,7,30,436,-1776,1214,3451,3,-1,10,
173,7,10,2023,15,7,30,446,-1765,1221,3439,4,-2,5,
174,7,10,2023,15,7,30,456,-1773,1221,3449,1,1,9,
175,7,10,2023,15,7,30,466,-1775,1222,3446,2,4,7,
176,7,10,2023,15,7,30,476,-1771,1220,3452,9,-2,5,
177,7,10,2023,15,7,30,486,-1778,1222,3439,4,4,6,
178,7,10,2023,15,7,30,496,-1768,1228,3449,3,-2,9,
179,7,10,2023,15,7,30,506,-1773,1221,3449,1,3,5,
180,7,10,2023,15,7,30,516,-1774,1226,3443,2,1,6,
181,7,10,2023,15,7,30,526,-1774,1221,3452,1,3,6,
182,7,10,2023,15,7,30,536,-1776,1214,3446,1,4,6,
183,7,10,2023,15,7,30,546,-1773,1221,3449,-3,0,7,
184,7,10,2023,15,7,30,556,-1774,1226,3446,0,8,6,
185,7,10,2023,15,7,30,566,-1769,1220,3446,0,7,3,
186,7,10,2023,15,7,30,576,-1762,1226,3448,0,3,2,
187,7,10,2023,15,7,30,586,-1776,1227,3433,7,13,6,
188,7,10,2023,15,7,30,596,-1763,1212,3448,3,1,5,
189,7,10,2023,15,7,30,606,-1767,1218,3442,4,6,6,
190,7,10,2023,15,7,30,616,-1776,1226,3441,2,8,4,
191,7,10,2023,15,7,30,626,-1770,1218,3455,2,1,4,
192,7,10,2023,15,7,30,636,-1777,1223,3442,1,7,7,
193,7,10,2023,15,7,30,646,-1776,1222,3449,-1,7,3,
194,7,10,2023,15,7,30,656,-1769,1226,3454,3,12,2,
195,7,10,2023,15,7,30,666,-1775,1231,3445,5,11,1,
196,7,10,2023,15,7,30,676,-1774,1219,3446,0,7,1,
197,7,10,2023,15,7,30,686,-1773,1217,3445,3,11,1,
198,7,10,2023,15,7,30,696,-1773,1222,3455,6,8,-1,
199,7,10,2023,15,7,30,706,-1775,1219,3453,6,11,4,
200,7,10,2023,15,7,30,716,-1776,1220,3444,5,11,2,
201,7,10,2023,15,7,30,726,-1776,1220,3447,6,11,3,
202,7,10,2023,15,7,30,736,-1774,1226,3445,8,6,2,
203,7,10,2023,15,7,30,746,-1777,1224,3447,10,10,2,
204,7,10,2023,15,7,30,756,-1770,1221,3449,3,5,6,
205,7,10,2023,15,7,30,766,-1771,1221,3440,3,2,5,
206,7,10,2023,15,7,30,776,-1773,1235,3431,2,3,4,
207,7,10,2023,15,7,30,786,-1775,1233,3446,0,5,3,
208,7,10,2023,15,7,30,796,-1776,1215,3451,-4,2,3,
209,7,10,2023,15,7,30,806,-1772,1219,3444,-6,3,0,
210,7,10,2023,15,7,30,816,-1776,1218,3447,-6,1,1,
211,7,10,2023,15,7,30,826,-1777,1211,3448,-1,4,4,
212,7,10,2023,15,7,30,836,-1781,1220,3443,4,7,2,
213,7,10,2023,15,7,30,846,-1774,1221,3438,1,5,5,
214,7,10,2023,15,7,30,856,-1774,1218,3449,1,8,8,
215,7,10,2023,15,7,30,866,-1775,1221,3439,5,5,10,
216,7,10,2023,15,7,30,876,-1775,1224,3449,4,2,7,
217,7,10,2023,15,7,30,886,-1770,1226,3439,-2,2,4,
218,7,10,2023,15,7,30,896,-1770,1224,3455,-2,-2,4,
219,7,10,2023,15,7,30,906,-1775,1221,3454,-1,2,3,
220,7,10,2023,15,7,30,916,-1772,1220,3448,-2,0,1,
221,7,10,2023,15,7,30,926,-1776,1218,3449,-2,2,5,
222,7,10,2023,15,7,30,936,-1784,1211,3449,-1,0,8,
223,7,10,2023,15,7,30,946,-1781,1213,3445,1,4,7,
224,7,10,2023,15,7,30,956,-1773,1218,3437,4,3,4,
225,7,10,2023,15,7,30,966,-1777,1222,3443,1,5,6,
226,7,10,2023,15,7,30,976,-1780,1222,3441,1,3,7,
227,7,10,2023,15,7,30,986,-1774,1230,3443,6,6,6,
228,7,10,2023,15,7,30,996,-1775,1226,3447,4,4,4,
229,7,10,2023,15,7,31,6,-1772,1217,3448,-4,1,3,
230,7,10,2023,15,7,31,16,-1768,1219,3448,3,-1,6,
231,7,10,2023,15,7,31,26,-1771,1220,3444,1,11,2,
232,7,10,2023,15,7,31,36,-1780,1214,3450,2,11,4,
233,7,10,2023,15,7,31,46,-1778,1221,3450,2,12,3,
234,7,10,2023,15,7,31,56,-1758,1217,3435,9,15,5,
235,7,10,2023,15,7,31,66,-1783,1219,3452,7,15,4,
236,7,10,2023,15,7,31,76,-1794,1221,3437,11,19,0,
237,7,10,2023,15,7,31,86,-1762,1222,3445,11,8,-1,
238,7,10,2023,15,7,31,96,-1774,1226,3448,14,17,4,
239,7,10,2023,15,7,31,106,-1773,1235,3441,12,13,3,
240,7,10,2023,15,7,31,116,-1782,1223,3449,11,11,-1,
241,7,10,2023,15,7,31,126,-1789,1201,3443,13,20,1,
242,7,10,2023,15,7,31,136,-1763,1258,3434,18,22,6,
243,7,10,2023,15,7,31,146,-1764,1232,3438,12,20,-4,
244,7,10,2023,15,7,31,156,-1798,1193,3454,11,22,-6,
245,7,10,2023,15,7,31,166,-1782,1211,3457,22,14,4,
246,7,10,2023,15,7,31,176,-1777,1231,3443,31,19,6,
247,7,10,2023,15,7,31,186,-1788,1227,3431,29,22,5,
248,7,10,2023,15,7,31,196,-1789,1227,3440,26,17,4,
249,7,10,2023,15,7,31,206,-1798,1225,3434,22,18,3,
250,7,10,2023,15,7,31,216,-1800,1239,3440,18,10,2,
251,7,10,2023,15,7,31,226,-1794,1228,3432,8,8,2,
252,7,10,2023,15,7,31,236,-1792,1235,3439,5,2,2,
253,7,10,2023,15,7,31,246,-1803,1235,3434,-2,1,1,
254,7,10,2023,15,7,31,256,-1801,1232,3433,-8,-8,1,
255,7,10,2023,15,7,31,266,-1798,1221,3424,-19,-12,0,
256,7,10,2023,15,7,31,286,-1807,1225,3433,-25,-24,6,
257,7,10,2023,15,7,31,296,-1805,1209,3444,-30,-34,8,
258,7,10,2023,15,7,31,306,-1810,1192,3444,-26,-35,12,
259,7,10,2023,15,7,31,316,-1797,1195,3452,-11,-33,25,
260,7,10,2023,15,7,31,326,-1795,1205,3441,-5,-26,31,
261,7,10,2023,15,7,31,336,-1778,1222,3459,2,-36,34,
262,7,10,2023,15,7,31,346,-1767,1218,3451,7,-26,37,
263,7,10,2023,15,7,31,356,-1758,1217,3447,7,-25,34,
264,7,10,2023,15,7,31,366,-1751,1212,3461,13,-29,35,
265,7,10,2023,15,7,31,376,-1754,1234,3429,19,-6,34,
266,7,10,2023,15,7,31,386,-1738,1255,3439,13,-14,29,
267,7,10,2023,15,7,31,396,-1752,1236,3447,1,-8,21,
268,7,10,2023,15,7,31,406,-1769,1227,3436,-4,-6,13,
269,7,10,2023,15,7,31,416,-1768,1245,3439,-9,-12,9,
270,7,10,2023,15,7,31,426,-1766,1242,3445,-20,-10,5,
271,7,10,2023,15,7,31,436,-1769,1230,3449,-28,-10,-3,
272,7,10,2023,15,7,31,446,-1778,1205,3454,-25,-9,0,
273,7,10,2023,15,7,31,456,-1758,1213,3448,-18,-8,3,
274,7,10,2023,15,7,31,466,-1758,1219,3459,-10,-3,1,
275,7,10,2023,15,7,31,476,-1767,1211,3455,-5,4,2,
276,7,10,2023,15,7,31,486,-1772,1214,3443,4,5,4,
277,7,10,2023,15,7,31,496,-1774,1217,3445,5,6,5,
278,7,10,2023,15,7,31,506,-1784,1209,3448,11,4,11,
279,7,10,2023,15,7,31,516,-1778,1218,3438,12,8,11,
280,7,10,2023,15,7,31,526,-1769,1224,3444,11,4,10,
281,7,10,2023,15,7,31,536,-1781,1224,3442,10,9,13,
282,7,10,2023,15,7,31,546,-1774,1221,3444,10,3,15,
283,7,10,2023,15,7,31,556,-1772,1238,3444,8,2,14,
284,7,10,2023,15,7,31,566,-1775,1224,3434,2,2,7,
285,7,10,2023,15,7,31,576,-1763,1222,3446,3,0,3,
286,7,10,2023,15,7,31,586,-1769,1221,3446,2,6,6,
287,7,10,2023,15,7,31,596,-1761,1216,3438,5,9,5,
288,7,10,2023,15,7,31,606,-1758,1215,3448,11,9,3,
289,7,10,2023,15,7,31,616,-1758,1222,3439,9,15,3,
290,7,10,2023,15,7,31,626,-1746,1226,3441,9,19,-3,
291,7,10,2023,15,7,31,636,-1744,1228,3444,13,22,-4,
292,7,10,2023,15,7,31,646,-1762,1237,3440,11,31,-11,
293,7,10,2023,15,7,31,656,-1780,1222,3443,7,32,-15,
294,7,10,2023,15,7,31,666,-1787,1219,3448,9,30,-15,
295,7,10,2023,15,7,31,676,-1791,1218,3439,10,31,-13,
296,7,10,2023,15,7,31,686,-1789,1222,3433,11,29,-9,
297,7,10,2023,15,7,31,696,-1766,1240,3437,8,22,-6,
298,7,10,2023,15,7,31,706,-1781,1224,3445,3,27,-11,
299,7,10,2023,15,7,31,716,-1786,1215,3439,3,26,-13,
300,7,10,2023,15,7,31,726,-1785,1214,3449,5,21,-9,
301,7,10,2023,15,7,31,736,-1775,1212,3441,4,26,-6,
302,7,10,2023,15,7,31,746,-1776,1221,3443,8,22,-5,
303,7,10,2023,15,7,31,756,-1799,1224,3438,6,28,-6,
304,7,10,2023,15,7,31,766,-1785,1217,3437,11,17,2,
305,7,10,2023,15,7,31,776,-1783,1226,3438,13,18,3,
306,7,10,2023,15,7,31,786,-1783,1230,3436,7,16,4,
307,7,10,2023,15,7,31,796,-1776,1222,3451,6,9,4,
308,7,10,2023,15,7,31,806,-1790,1216,3439,7,18,5,
309,7,10,2023,15,7,31,816,-1790,1221,3458,8,8,5,
310,7,10,2023,15,7,31,826,-1803,1223,3453,8,13,6,
311,7,10,2023,15,7,31,836,-1795,1213,3443,12,5,11,
312,7,10,2023,15,7,31,846,-1771,1218,3444,16,-1,13,
313,7,10,2023,15,7,31,856,-1778,1221,3436,15,12,10,
314,7,10,2023,15,7,31,866,-1780,1232,3438,12,10,4,
315,7,10,2023,15,7,31,876,-1775,1225,3448,14,5,9,
316,7,10,2023,15,7,31,886,-1795,1227,3431,9,12,5,
317,7,10,2023,15,7,31,896,-1790,1226,3438,10,3,5,
318,7,10,2023,15,7,31,906,-1796,1221,3429,4,8,8,
319,7,10,2023,15,7,31,916,-1790,1224,3434,2,3,9,
320,7,10,2023,15,7,31,926,-1785,1228,3434,-1,-3,7,
321,7,10,2023,15,7,31,936,-1786,1228,3433,-6,-1,7,
322,7,10,2023,15,7,31,946,-1793,1226,3441,-6,-4,2,
323,7,10,2023,15,7,31,956,-1805,1218,3436,-9,-9,7,
324,7,10,2023,15,7,31,966,-1796,1228,3439,-6,-10,11,
325,7,10,2023,15,7,31,976,-1786,1236,3440,-9,-14,11,
326,7,10,2023,15,7,31,986,-1770,1230,3429,-9,-17,9,
327,7,10,2023,15,7,31,996,-1777,1226,3437,-15,-11,7,
328,7,10,2023,15,7,32,6,-1777,1217,3440,-18,-11,6,
329,7,10,2023,15,7,32,16,-1784,1214,3441,-17,-17,6,
330,7,10,2023,15,7,32,26,-1791,1220,3436,-12,-9,10,
331,7,10,2023,15,7,32,36,-1790,1217,3447,-11,-13,12,
332,7,10,2023,15,7,32,46,-1786,1218,3441,-14,-11,12,
333,7,10,2023,15,7,32,56,-1786,1221,3441,-10,-18,15,
334,7,10,2023,15,7,32,66,-1787,1222,3446,-10,-20,16,
335,7,10,2023,15,7,32,76,-1780,1229,3432,-11,-18,14,
336,7,10,2023,15,7,32,86,-1775,1227,3440,-13,-23,15,
337,7,10,2023,15,7,32,96,-1781,1216,3440,-13,-22,13,
338,7,10,2023,15,7,32,106,-1783,1224,3437,-16,-24,17,
339,7,10,2023,15,7,32,116,-1772,1210,3447,-19,-23,17,
340,7,10,2023,15,7,32,126,-1780,1200,3450,-14,-19,16,
341,7,10,2023,15,7,32,146,-1772,1219,3445,-13,-25,20,
342,7,10,2023,15,7,32,156,-1782,1212,3456,-11,-24,20,
343,7,10,2023,15,7,32,166,-1772,1221,3437,-10,-21,17,
344,7,10,2023,15,7,32,176,-1758,1213,3450,-4,-23,17,
345,7,10,2023,15,7,32,186,-1779,1213,3459,-1,-10,19,
346,7,10,2023,15,7,32,196,-1763,1215,3446,3,-11,20,
347,7,10,2023,15,7,32,206,-1763,1226,3462,5,-16,18,
348,7,10,2023,15,7,32,216,-1783,1225,3435,4,4,19,
349,7,10,2023,15,7,32,226,-1766,1210,3449,3,-15,20,
350,7,10,2023,15,7,32,236,-1782,1208,3449,3,-10,19,
351,7,10,2023,15,7,32,246,-1784,1223,3440,5,-10,22,
352,7,10,2023,15,7,32,256,-1772,1212,3457,5,-18,24,
353,7,10,2023,15,7,32,266,-1772,1222,3434,7,-7,23,
354,7,10,2023,15,7,32,276,-1753,1224,3456,7,-14,20,
355,7,10,2023,15,7,32,286,-1774,1232,3447,10,-3,20,
356,7,10,2023,15,7,32,296,-1774,1211,3440,10,-4,20,
357,7,10,2023,15,7,32,306,-1756,1224,3452,11,-8,15,
358,7,10,2023,15,7,32,316,-1780,1241,3435,9,6,19,
359,7,10,2023,15,7,32,326,-1770,1223,3449,4,-8,16,
360,7,10,2023,15,7,32,336,-1758,1229,3451,1,-2,17,
361,7,10,2023,15,7,32,346,-1775,1245,3435,-1,5,15,
362,7,10,2023,15,7,32,356,-1767,1231,3445,0,-10,9,
363,7,10,2023,15,7,32,366,-1775,1216,3439,-6,0,8,
364,7,10,2023,15,7,32,376,-1766,1221,3450,-10,-10,6,
365,7,10,2023,15,7,32,386,-1765,1224,3444,-12,-5,6,
366,7,10,2023,15,7,32,396,-1771,1223,3435,-14,-4,4,
367,7,10,2023,15,7,32,406,-1761,1225,3456,-16,-12,0,
368,7,10,2023,15,7,32,416,-1769,1216,3449,-16,-1,-3,
369,7,10,2023,15,7,32,426,-1774,1208,3465,-11,-7,1,
370,7,10,2023,15,7,32,436,-1770,1216,3459,-9,-1,4,
371,7,10,2023,15,7,32,446,-1772,1211,3449,-4,0,4,
372,7,10,2023,15,7,32,456,-1763,1206,3470,-1,-4,6,
373,7,10,2023,15,7,32,466,-1779,1220,3446,4,10,4,
374,7,10,2023,15,7,32,476,-1767,1222,3445,4,2,5,
375,7,10,2023,15,7,32,486,-1762,1224,3456,5,8,4,
376,7,10,2023,15,7,32,496,-1772,1221,3438,6,11,5,
377,7,10,2023,15,7,32,506,-1762,1219,3464,8,5,4,
378,7,10,2023,15,7,32,516,-1774,1215,3452,14,20,5,
379,7,10,2023,15,7,32,526,-1773,1208,3445,18,13,3,
380,7,10,2023,15,7,32,536,-1764,1214,3450,20,13,6,
381,7,10,2023,15,7,32,546,-1769,1230,3431,15,22,6,
382,7,10,2023,15,7,32,556,-1773,1224,3450,7,3,8,
383,7,10,2023,15,7,32,566,-1770,1225,3440,10,6,6,
384,7,10,2023,15,7,32,576,-1766,1227,3442,9,4,9,
385,7,10,2023,15,7,32,586,-1773,1228,3452,4,5,7,
386,7,10,2023,15,7,32,596,-1781,1219,3451,5,12,7,
387,7,10,2023,15,7,32,606,-1769,1219,3454,10,8,11,
388,7,10,2023,15,7,32,616,-1776,1221,3449,13,11,6,
389,7,10,2023,15,7,32,626,-1767,1217,3442,9,11,9,
390,7,10,2023,15,7,32,636,-1755,1223,3453,9,8,10,
391,7,10,2023,15,7,32,646,-1765,1223,3453,13,14,6,
392,7,10,2023,15,7,32,656,-1774,1217,3445,12,16,3,
393,7,10,2023,15,7,32,666,-1764,1214,3444,16,15,6,
394,7,10,2023,15,7,32,676,-1761,1221,3441,18,22,5,
395,7,10,2023,15,7,32,686,-1765,1220,3451,23,25,6,
396,7,10,2023,15,7,32,696,-1773,1226,3460,26,22,7,
397,7,10,2023,15,7,32,706,-1782,1219,3453,28,27,5,
398,7,10,2023,15,7,32,716,-1773,1228,3452,29,23,13,
399,7,10,2023,15,7,32,726,-1780,1226,3452,33,22,11,
400,7,10,2023,15,7,32,736,-1788,1228,3431,29,23,8,
401,7,10,2023,15,7,32,746,-1772,1224,3441,26,16,11,
402,7,10,2023,15,7,32,756,-1765,1225,3454,31,16,14,
403,7,10,2023,15,7,32,766,-1763,1224,3452,33,21,12,
404,7,10,2023,15,7,32,776,-1752,1227,3449,32,24,8,
405,7,10,2023,15,7,32,786,-1781,1226,3447,36,33,6,
406,7,10,2023,15,7,32,796,-1783,1225,3445,40,30,10,
407,7,10,2023,15,7,32,806,-1789,1233,3443,38,35,8,
408,7,10,2023,15,7,32,816,-1785,1235,3427,39,27,10,
409,7,10,2023,15,7,32,826,-1792,1218,3438,34,19,12,
410,7,10,2023,15,7,32,836,-1799,1228,3433,30,22,19,
411,7,10,2023,15,7,32,846,-1790,1241,3438,26,13,20,
412,7,10,2023,15,7,32,856,-1784,1246,3432,25,9,18,
413,7,10,2023,15,7,32,866,-1775,1245,3424,15,7,13,
414,7,10,2023,15,7,32,876,-1772,1249,3442,5,4,7,
415,7,10,2023,15,7,32,886,-1774,1230,3428,-3,12,4,
416,7,10,2023,15,7,32,896,-1774,1240,3443,1,7,5,
417,7,10,2023,15,7,32,906,-1775,1229,3447,5,11,-1,
418,7,10,2023,15,7,32,916,-1790,1221,3441,6,18,-1,
419,7,10,2023,15,7,32,926,-1783,1214,3445,8,12,3,
420,7,10,2023,15,7,32,936,-1781,1219,3457,11,11,3,
421,7,10,2023,15,7,32,946,-1784,1225,3432,13,13,6,
422,7,10,2023,15,7,32,956,-1777,1233,3444,19,7,10,
423,7,10,2023,15,7,32,966,-1781,1244,3436,17,19,10,
424,7,10,2023,15,7,32,976,-1786,1246,3430,13,14,8,
425,7,10,2023,15,7,32,986,-1781,1237,3440,8,7,7,
426,7,10,2023,15,7,33,6,-1779,1246,3431,-1,0,2,
427,7,10,2023,15,7,33,16,-1773,1242,3432,-5,8,0,
428,7,10,2023,15,7,33,26,-1783,1233,3439,-6,4,-1,
429,7,10,2023,15,7,33,36,-1780,1225,3449,-3,4,-2,
430,7,10,2023,15,7,33,46,-1790,1228,3440,-2,8,6,
431,7,10,2023,15,7,33,56,-1787,1230,3444,4,1,7,
432,7,10,2023,15,7,33,66,-1785,1228,3436,7,9,7,
433,7,10,2023,15,7,33,76,-1781,1236,3439,15,4,9,
434,7,10,2023,15,7,33,86,-1773,1244,3439,10,5,7,
435,7,10,2023,15,7,33,96,-1779,1255,3425,6,12,4,
436,7,10,2023,15,7,33,106,-1779,1228,3440,2,11,-1,
437,7,10,2023,15,7,33,116,-1776,1244,3435,5,17,5,
438,7,10,2023,15,7,33,126,-1769,1241,3442,3,8,1,
439,7,10,2023,15,7,33,136,-1766,1247,3442,4,17,-6,
440,7,10,2023,15,7,33,146,-1768,1243,3429,3,28,-4,
441,7,10,2023,15,7,33,156,-1760,1246,3441,1,20,-9,
442,7,10,2023,15,7,33,166,-1771,1234,3443,-4,33,-18,
443,7,10,2023,15,7,33,176,-1785,1232,3440,-5,29,-19,
444,7,10,2023,15,7,33,186,-1792,1222,3441,-4,29,-20,
445,7,10,2023,15,7,33,196,-1782,1234,3429,5,35,-14,
446,7,10,2023,15,7,33,206,-1786,1225,3436,10,25,-9,
447,7,10,2023,15,7,33,216,-1795,1209,3435,9,25,-7,
448,7,10,2023,15,7,33,226,-1788,1228,3435,19,26,-2,
449,7,10,2023,15,7,33,236,-1794,1246,3443,24,30,0,
450,7,10,2023,15,7,33,246,-1798,1236,3433,19,29,-4,
451,7,10,2023,15,7,33,256,-1788,1228,3436,12,22,-6,
452,7,10,2023,15,7,33,266,-1788,1257,3434,15,29,-6,
453,7,10,2023,15,7,33,276,-1799,1246,3418,3,28,-11,
454,7,10,2023,15,7,33,286,-1786,1227,3435,-7,13,-13,
455,7,10,2023,15,7,33,296,-1799,1213,3440,-4,28,-13,
456,7,10,2023,15,7,33,306,-1796,1213,3443,7,24,-6,
457,7,10,2023,15,7,33,316,-1793,1199,3447,15,22,-7,
458,7,10,2023,15,7,33,326,-1798,1222,3427,25,36,-3,
459,7,10,2023,15,7,33,336,-1783,1245,3426,31,30,5,
460,7,10,2023,15,7,33,346,-1788,1240,3425,27,27,-1,
461,7,10,2023,15,7,33,356,-1801,1259,3425,24,29,2,
462,7,10,2023,15,7,33,366,-1797,1262,3425,15,21,0,
463,7,10,2023,15,7,33,376,-1789,1255,3427,2,21,-9,
464,7,10,2023,15,7,33,386,-1798,1263,3436,-6,23,-16,
465,7,10,2023,15,7,33,396,-1793,1239,3433,-14,23,-23,
466,7,10,2023,15,7,33,406,-1790,1237,3443,-11,23,-24,
467,7,10,2023,15,7,33,416,-1793,1223,3448,-4,27,-21,
468,7,10,2023,15,7,33,426,-1795,1205,3442,6,27,-20,
469,7,10,2023,15,7,33,436,-1798,1208,3428,18,37,-10,
470,7,10,2023,15,7,33,446,-1812,1212,3434,28,35,-7,
471,7,10,2023,15,7,33,456,-1821,1205,3446,33,33,-4,
472,7,10,2023,15,7,33,466,-1817,1219,3419,44,40,6,
473,7,10,2023,15,7,33,476,-1804,1250,3431,41,31,9,
474,7,10,2023,15,7,33,486,-1812,1262,3417,32,32,6,
475,7,10,2023,15,7,33,496,-1808,1240,3412,21,19,-1,
476,7,10,2023,15,7,33,506,-1810,1236,3434,14,19,-3,
477,7,10,2023,15,7,33,516,-1821,1232,3421,11,24,1,
478,7,10,2023,15,7,33,526,-1806,1231,3439,12,10,4,
479,7,10,2023,15,7,33,536,-1799,1230,3418,14,17,4,
480,7,10,2023,15,7,33,546,-1814,1240,3409,14,13,9,
481,7,10,2023,15,7,33,556,-1806,1259,3402,9,2,9,
482,7,10,2023,15,7,33,566,-1813,1257,3395,-7,-7,3,
483,7,10,2023,15,7,33,576,-1805,1249,3407,-22,-18,2,
484,7,10,2023,15,7,33,586,-1807,1241,3428,-39,-23,-2,
485,7,10,2023,15,7,33,596,-1807,1231,3430,-40,-26,-3,
486,7,10,2023,15,7,33,606,-1789,1224,3450,-37,-20,-3,
487,7,10,2023,15,7,33,616,-1785,1226,3445,-28,-10,1,
488,7,10,2023,15,7,33,626,-1781,1227,3448,-19,-3,-2,
489,7,10,2023,15,7,33,636,-1786,1212,3440,-11,4,-3,
490,7,10,2023,15,7,33,646,-1794,1205,3441,0,10,3,
491,7,10,2023,15,7,33,656,-1796,1209,3438,13,13,7,
492,7,10,2023,15,7,33,666,-1787,1229,3435,27,20,9,
493,7,10,2023,15,7,33,676,-1812,1240,3410,29,29,9,
494,7,10,2023,15,7,33,686,-1805,1230,3428,25,8,8,
495,7,10,2023,15,7,33,696,-1802,1238,3434,24,13,5,
496,7,10,2023,15,7,33,706,-1813,1241,3416,22,27,2,
497,7,10,2023,15,7,33,716,-1815,1248,3423,14,14,0,
498,7,10,2023,15,7,33,726,-1813,1261,3408,2,11,-3,
499,7,10,2023,15,7,33,736,-1808,1254,3411,-13,4,-8,
500,7,10,2023,15,7,33,746,-1807,1231,3427,-19,-9,-7,
501,7,10,2023,15,7,33,756,-1797,1236,3421,-18,-9,-4,
502,7,10,2023,15,7,33,766,-1824,1241,3397,-21,3,-8,
503,7,10,2023,15,7,33,776,-1818,1222,3404,-27,-8,-9,
504,7,10,2023,15,7,33,786,-1811,1224,3424,-30,-18,-1,
505,7,10,2023,15,7,33,796,-1814,1238,3425,-33,-20,-3,
506,7,10,2023,15,7,33,806,-1781,1214,3465,-35,-34,-5,
507,7,10,2023,15,7,33,816,-1795,1217,3460,-25,-5,-3,
508,7,10,2023,15,7,33,826,-1790,1191,3474,5,1,-1,
509,7,10,2023,15,7,33,836,-1806,1201,3435,22,35,2,
510,7,10,2023,15,7,33,846,-1818,1192,3431,37,24,9,
511,7,10,2023,15,7,33,866,-1811,1202,3429,61,32,28,
512,7,10,2023,15,7,33,876,-1816,1267,3397,68,27,34,
513,7,10,2023,15,7,33,886,-1807,1286,3407,53,13,28,
514,7,10,2023,15,7,33,896,-1803,1300,3414,31,6,19,
515,7,10,2023,15,7,33,906,-1792,1306,3414,4,0,9,
516,7,10,2023,15,7,33,916,-1786,1291,3420,-20,-7,-4,
517,7,10,2023,15,7,33,926,-1799,1240,3419,-34,-3,-16,
518,7,10,2023,15,7,33,936,-1793,1213,3443,-36,-5,-20,
519,7,10,2023,15,7,33,946,-1797,1186,3445,-21,7,-14,
520,7,10,2023,15,7,33,956,-1792,1178,3448,3,16,-1,
521,7,10,2023,15,7,33,966,-1780,1219,3444,29,28,10,
522,7,10,2023,15,7,33,976,-1812,1228,3412,42,40,12,
523,7,10,2023,15,7,33,986,-1794,1206,3448,48,20,16,
524,7,10,2023,15,7,33,996,-1783,1217,3462,60,32,20,
525,7,10,2023,15,7,34,6,-1797,1205,3450,79,57,19,
526,7,10,2023,15,7,34,16,-1811,1237,3427,86,51,19,
527,7,10,2023,15,7,34,26,-1837,1298,3375,67,62,10,
528,7,10,2023,15,7,34,36,-1818,1310,3411,38,25,-4,
529,7,10,2023,15,7,34,46,-1836,1313,3397,10,28,-13,
530,7,10,2023,15,7,34,56,-1867,1300,3371,-25,14,-24,
531,7,10,2023,15,7,34,66,-1882,1278,3373,-61,-21,-28,
532,7,10,2023,15,7,34,76,-1877,1239,3360,-91,-41,-25,
533,7,10,2023,15,7,34,86,-1810,1220,3417,-102,-92,-16,
534,7,10,2023,15,7,34,96,-1812,1233,3410,-99,-69,-6,
535,7,10,2023,15,7,34,106,-1821,1201,3416,-98,-75,-4,
536,7,10,2023,15,7,34,116,-1801,1174,3465,-88,-99,-4,
537,7,10,2023,15,7,34,126,-1802,1170,3463,-66,-63,8,
538,7,10,2023,15,7,34,136,-1786,1172,3492,-36,-69,21,
539,7,10,2023,15,7,34,146,-1801,1145,3483,-15,-47,27,
540,7,10,2023,15,7,34,156,-1816,1171,3439,13,-28,44,
541,7,10,2023,15,7,34,166,-1850,1239,3395,23,-37,62,
542,7,10,2023,15,7,34,176,-1819,1275,3373,7,-56,64,
543,7,10,2023,15,7,34,186,-1776,1293,3415,-21,-87,54,
544,7,10,2023,15,7,34,196,-1773,1258,3423,-50,-76,39,
545,7,10,2023,15,7,34,206,-1768,1247,3453,-61,-82,27,
546,7,10,2023,15,7,34,216,-1752,1241,3470,-64,-69,18,
547,7,10,2023,15,7,34,226,-1766,1196,3466,-65,-49,14,
548,7,10,2023,15,7,34,236,-1792,1201,3439,-45,-37,16,
549,7,10,2023,15,7,34,246,-1826,1209,3406,-39,-34,20,
550,7,10,2023,15,7,34,256,-1821,1159,3408,-48,-60,25,
551,7,10,2023,15,7,34,266,-1776,1180,3457,-33,-76,49,
552,7,10,2023,15,7,34,276,-1763,1266,3440,-14,-58,63,
553,7,10,2023,15,7,34,286,-1762,1264,3427,-16,-52,50,
554,7,10,2023,15,7,34,296,-1750,1248,3463,-22,-62,36,
555,7,10,2023,15,7,34,306,-1769,1249,3452,-32,-34,29,
556,7,10,2023,15,7,34,316,-1753,1189,3491,-26,-38,21,
557,7,10,2023,15,7,34,326,-1729,1176,3517,0,-22,24,
558,7,10,2023,15,7,34,336,-1739,1173,3476,31,29,30,
559,7,10,2023,15,7,34,346,-1727,1175,3474,58,39,31,
560,7,10,2023,15,7,34,356,-1729,1182,3466,73,76,28,
561,7,10,2023,15,7,34,366,-1765,1178,3429,90,98,26,
562,7,10,2023,15,7,34,376,-1778,1167,3405,96,95,28,
563,7,10,2023,15,7,34,386,-1838,1230,3380,109,85,45,
564,7,10,2023,15,7,34,396,-1872,1300,3340,94,59,55,
565,7,10,2023,15,7,34,406,-1850,1354,3366,51,-14,52,
566,7,10,2023,15,7,34,416,-1853,1467,3311,-8,-25,43,
567,7,10,2023,15,7,34,426,-1793,1434,3369,-101,-108,4,
568,7,10,2023,15,7,34,436,-1787,1315,3457,-183,-138,-38,
569,7,10,2023,15,7,34,446,-1859,1187,3453,-224,-127,-47,
570,7,10,2023,15,7,34,456,-1850,1143,3458,-203,-168,-19,
571,7,10,2023,15,7,34,466,-1853,1155,3441,-167,-167,17,
572,7,10,2023,15,7,34,476,-1813,1179,3437,-152,-189,40,
573,7,10,2023,15,7,34,486,-1710,1230,3419,-147,-194,50,
574,7,10,2023,15,7,34,496,-1624,1203,3472,-144,-189,33,
575,7,10,2023,15,7,34,506,-1728,1154,3515,-134,-141,8,
576,7,10,2023,15,7,34,516,-1847,1118,3458,-115,-97,16,
577,7,10,2023,15,7,34,526,-1834,1139,3490,-87,-136,41,
578,7,10,2023,15,7,34,536,-1813,1164,3503,-69,-135,66,
579,7,10,2023,15,7,34,546,-1819,1176,3500,-57,-130,81,
580,7,10,2023,15,7,34,556,-1821,1153,3508,-47,-133,90,
581,7,10,2023,15,7,34,566,-1723,1153,3520,-26,-142,113,
582,7,10,2023,15,7,34,576,-1680,1235,3496,-4,-127,127,
583,7,10,2023,15,7,34,586,-1663,1309,3436,-12,-109,111,
584,7,10,2023,15,7,34,596,-1662,1306,3468,-47,-128,79,
585,7,10,2023,15,7,34,606,-1719,1237,3452,-83,-105,49,
586,7,10,2023,15,7,34,616,-1735,1163,3468,-104,-119,36,
587,7,10,2023,15,7,34,626,-1714,1119,3517,-108,-138,34,
588,7,10,2023,15,7,34,636,-1761,1219,3452,-107,-97,38,
589,7,10,2023,15,7,34,646,-1785,1282,3425,-142,-126,32,
590,7,10,2023,15,7,34,656,-1749,1235,3500,-200,-186,11,
591,7,10,2023,15,7,34,666,-1728,1137,3534,-214,-182,1,
592,7,10,2023,15,7,34,676,-1728,1101,3550,-170,-167,21,
593,7,10,2023,15,7,34,686,-1699,1120,3561,-104,-136,45,
594,7,10,2023,15,7,34,696,-1678,1166,3518,-51,-97,57,
595,7,10,2023,15,7,34,706,-1693,1225,3481,-16,-77,61,
596,7,10,2023,15,7,34,726,-1685,1168,3488,-35,-97,42,
597,7,10,2023,15,7,34,736,-1699,1178,3495,-27,-87,53,
598,7,10,2023,15,7,34,746,-1646,1212,3508,-15,-84,43,
599,7,10,2023,15,7,34,756,-1628,1209,3493,-22,-75,30,
600,7,10,2023,15,7,34,766,-1684,1274,3461,-35,-69,22,
601,7,10,2023,15,7,34,776,-1693,1252,3474,-68,-83,5,
602,7,10,2023,15,7,34,786,-1647,1232,3493,-80,-92,-9,
603,7,10,2023,15,7,34,796,-1698,1284,3466,-93,-77,-13,
604,7,10,2023,15,7,34,806,-1723,1250,3473,-115,-103,-35,
605,7,10,2023,15,7,34,816,-1682,1198,3505,-129,-127,-47,
606,7,10,2023,15,7,34,826,-1662,1151,3502,-130,-113,-47,
607,7,10,2023,15,7,34,836,-1571,1123,3493,-110,-103,-41,
608,7,10,2023,15,7,34,846,-1505,1166,3522,-87,-78,-47,
609,7,10,2023,15,7,34,856,-1634,1116,3550,-82,-30,-73,
610,7,10,2023,15,7,34,866,-1778,1024,3526,-67,6,-80,
611,7,10,2023,15,7,34,876,-1790,1071,3547,-31,-19,-42,
612,7,10,2023,15,7,34,886,-1708,1039,3563,-6,-52,-27,
613,7,10,2023,15,7,34,896,-1700,1078,3543,29,-24,-8,
614,7,10,2023,15,7,34,906,-1703,1108,3531,42,-25,6,
615,7,10,2023,15,7,34,916,-1688,1141,3534,48,-31,13,
616,7,10,2023,15,7,34,926,-1682,1133,3522,42,-15,13,
617,7,10,2023,15,7,34,936,-1689,1159,3516,34,-18,15,
618,7,10,2023,15,7,34,946,-1713,1186,3510,27,-24,17,
619,7,10,2023,15,7,34,956,-1710,1166,3511,30,-31,16,
620,7,10,2023,15,7,34,966,-1689,1191,3520,27,-47,18,
621,7,10,2023,15,7,34,976,-1682,1199,3513,14,-43,17,
622,7,10,2023,15,7,34,986,-1707,1195,3511,3,-47,9,
623,7,10,2023,15,7,34,996,-1702,1163,3520,-23,-58,-3,
624,7,10,2023,15,7,35,6,-2395,2563,2856,-68,-227,-210,
625,7,10,2023,15,7,35,16,-1252,80,3967,-912,-1619,-1173,
626,7,10,2023,15,7,35,26,-1176,706,3773,15,-644,-334,
627,7,10,2023,15,7,35,36,-1674,1295,3540,207,62,78,
628,7,10,2023,15,7,35,46,-1646,1118,3550,-15,-21,10,
629,7,10,2023,15,7,35,56,-1600,1107,3537,-6,-19,25,
630,7,10,2023,15,7,35,66,-1637,992,3511,35,12,82,
631,7,10,2023,15,7,35,76,-1537,1056,3535,148,-27,272,
632,7,10,2023,15,7,35,86,-1352,804,3505,80,116,335,
633,7,10,2023,15,7,35,96,-1357,1467,3947,86,412,489,
634,7,10,2023,15,7,35,106,-1736,1225,3283,-11,1270,91,
635,7,10,2023,15,7,35,116,-2162,1177,2757,49,535,-34,
636,7,10,2023,15,7,35,126,-1272,1142,4259,94,-677,-18,
637,7,10,2023,15,7,35,136,-1779,1118,3401,42,607,-14,
638,7,10,2023,15,7,35,146,-1982,1159,3143,85,238,13,
639,7,10,2023,15,7,35,156,-1413,1165,4026,94,-314,31,
640,7,10,2023,15,7,35,166,-1902,1145,3236,58,480,19,
641,7,10,2023,15,7,35,176,-1762,1178,3459,87,-44,49,
642,7,10,2023,15,7,35,186,-1555,1213,3755,73,-67,48,
643,7,10,2023,15,7,35,196,-1912,2191,3420,-87,315,-162,
644,7,10,2023,15,7,35,206,-1678,366,3050,-654,-120,-839,
645,7,10,2023,15,7,35,216,-1551,923,3686,-27,-766,-232,
646,7,10,2023,15,7,35,226,-1454,1151,3850,155,-307,-41,
647,7,10,2023,15,7,35,236,-1725,1161,3445,104,187,11,
648,7,10,2023,15,7,35,246,-1734,1136,3489,132,71,17,
649,7,10,2023,15,7,35,256,-1675,1168,3482,164,33,39,
650,7,10,2023,15,7,35,266,-1652,1259,3522,109,43,28,
651,7,10,2023,15,7,35,276,-1639,1254,3508,13,62,-78,
652,7,10,2023,15,7,35,286,-1705,1122,3472,-39,69,-143,
653,7,10,2023,15,7,35,296,-1641,1136,3549,-31,-9,-181,
654,7,10,2023,15,7,35,306,-1685,1295,3516,9,19,-210,
655,7,10,2023,15,7,35,316,-1837,1135,3469,-1,-23,-423,
656,7,10,2023,15,7,35,326,-1641,860,3459,56,-201,-507,
657,7,10,2023,15,7,35,336,-1701,1065,3540,250,-238,-227,
658,7,10,2023,15,7,35,346,-1677,1149,3540,311,-290,-239,
659,7,10,2023,15,7,35,356,-1640,1113,3604,356,-294,-451,
660,7,10,2023,15,7,35,366,-1762,1068,3587,330,-125,-415,
661,7,10,2023,15,7,35,376,-1731,1461,3506,545,-71,-802,
662,7,10,2023,15,7,35,386,-1685,1260,3475,518,-40,-1333,
663,7,10,2023,15,7,35,396,-1626,1303,3543,534,110,-1707,
664,7,10,2023,15,7,35,406,-1585,1208,3597,193,222,-2228,
665,7,10,2023,15,7,35,416,-1696,1344,3699,-117,362,-2331,
666,7,10,2023,15,7,35,426,-1795,1174,3542,-415,498,-2429,
667,7,10,2023,15,7,35,436,-1789,924,3389,-476,476,-2573,
668,7,10,2023,15,7,35,446,-1835,1144,3428,-375,384,-2618,
669,7,10,2023,15,7,35,456,-1816,761,3503,-318,227,-2287,
670,7,10,2023,15,7,35,466,-1901,928,3552,-224,184,-2038,
671,7,10,2023,15,7,35,476,-1863,976,3546,-103,197,-2052,
672,7,10,2023,15,7,35,486,-1886,632,3429,119,152,-2097,
673,7,10,2023,15,7,35,496,-1946,765,3512,334,89,-2002,
674,7,10,2023,15,7,35,506,-1965,1031,3618,209,67,-1870,
675,7,10,2023,15,7,35,516,-2024,1271,3583,-30,170,-2188,
676,7,10,2023,15,7,35,526,-1967,884,3529,-40,376,-3123,
677,7,10,2023,15,7,35,536,-1937,745,3511,1,512,-3997,
678,7,10,2023,15,7,35,546,-1902,870,3431,-31,516,-4094,
679,7,10,2023,15,7,35,556,-1955,608,3441,-138,397,-3393,
680,7,10,2023,15,7,35,566,-1932,816,3442,-331,283,-2755,
681,7,10,2023,15,7,35,586,-1898,285,3367,-476,23,-2003,
682,7,10,2023,15,7,35,596,-1906,161,3432,-173,-86,-1545,
683,7,10,2023,15,7,35,606,-1803,172,3410,60,-175,-861,
684,7,10,2023,15,7,35,616,-1856,524,3585,282,-184,-141,
685,7,10,2023,15,7,35,626,-2034,626,3527,222,-37,198,
686,7,10,2023,15,7,35,636,-2121,737,3504,201,7,73,
687,7,10,2023,15,7,35,646,-2066,606,3503,181,-1,-154,
688,7,10,2023,15,7,35,656,-2067,613,3522,108,9,-310,
689,7,10,2023,15,7,35,666,-2014,704,3524,-34,42,-433,
690,7,10,2023,15,7,35,676,-1991,628,3410,-302,122,-1026,
691,7,10,2023,15,7,35,686,-2088,492,3442,-198,76,-1137,
692,7,10,2023,15,7,35,696,-1921,671,3490,-144,81,-1406,
693,7,10,2023,15,7,35,706,-1848,658,3507,-153,216,-1675,
694,7,10,2023,15,7,35,716,-1901,659,3489,-358,367,-1917,
695,7,10,2023,15,7,35,726,-2059,599,3440,-547,324,-1802,
696,7,10,2023,15,7,35,736,-2112,269,3437,-768,191,-1458,
697,7,10,2023,15,7,35,746,-2071,36,3448,-806,65,-1052,
698,7,10,2023,15,7,35,756,-2179,78,3458,-734,-17,-574,
699,7,10,2023,15,7,35,766,-2186,131,3490,-736,-113,-10,
700,7,10,2023,15,7,35,776,-2121,436,3540,-710,-183,91,
701,7,10,2023,15,7,35,786,-2100,305,3536,-627,-110,-121,
702,7,10,2023,15,7,35,796,-2073,155,3455,-376,-58,-294,
703,7,10,2023,15,7,35,806,-2024,196,3474,-28,-22,-245,
704,7,10,2023,15,7,35,816,-2004,146,3458,117,9,-89,
705,7,10,2023,15,7,35,826,-2052,183,3442,65,-48,300,
706,7,10,2023,15,7,35,836,-2048,207,3411,97,-108,429,
707,7,10,2023,15,7,35,846,-2063,257,3465,161,-145,500,
708,7,10,2023,15,7,35,856,-2030,395,3525,107,-181,614,
709,7,10,2023,15,7,35,866,-1983,422,3589,-46,-212,695,
710,7,10,2023,15,7,35,876,-2035,561,3490,-92,-203,730,
711,7,10,2023,15,7,35,886,-1962,454,3456,-23,-102,464,
712,7,10,2023,15,7,35,896,-2042,575,3566,26,-65,313,
713,7,10,2023,15,7,35,906,-2016,398,3500,-73,-8,107,
714,7,10,2023,15,7,35,916,-2054,348,3483,-105,-14,136,
715,7,10,2023,15,7,35,926,-2069,378,3494,-76,-36,154,
716,7,10,2023,15,7,35,936,-2044,269,3515,-35,-45,134,
717,7,10,2023,15,7,35,946,-1914,19,3614,-30,-53,286,
718,7,10,2023,15,7,35,956,-2047,334,3603,89,-85,746,
719,7,10,2023,15,7,35,966,-2008,493,3521,87,-15,704,
720,7,10,2023,15,7,35,976,-2012,596,3646,19,31,455,
721,7,10,2023,15,7,35,986,-1903,136,3537,-267,91,556,
722,7,10,2023,15,7,35,996,-1925,400,3719,-173,96,1077,
723,7,10,2023,15,7,36,6,-1918,508,3584,-46,77,1198,
724,7,10,2023,15,7,36,16,-2067,795,3533,188,131,922,
725,7,10,2023,15,7,36,26,-2079,723,3510,136,194,473,
726,7,10,2023,15,7,36,36,-2061,824,3422,52,169,56,
727,7,10,2023,15,7,36,46,-2073,38,3469,-216,162,-249,
728,7,10,2023,15,7,36,56,-2135,572,3464,-43,25,71,
729,7,10,2023,15,7,36,66,-1974,374,3541,-101,-72,-40,
730,7,10,2023,15,7,36,76,-2078,381,3468,-99,12,-28,
731,7,10,2023,15,7,36,86,-2024,377,3526,-82,-21,-17,
732,7,10,2023,15,7,36,96,-2057,397,3466,-78,10,-15,
733,7,10,2023,15,7,36,106,-2025,404,3531,-74,-42,-14,
734,7,10,2023,15,7,36,116,-2044,431,3494,-82,-17,-25,
735,7,10,2023,15,7,36,126,-2038,403,3501,-95,-8,-35,
736,7,10,2023,15,7,36,136,-2044,374,3501,-87,-11,-30,
737,7,10,2023,15,7,36,146,-2045,359,3511,-72,0,-18,
738,7,10,2023,15,7,36,156,-2039,369,3511,-51,6,-8,
739,7,10,2023,15,7,36,166,-2036,371,3506,-29,13,13,
740,7,10,2023,15,7,36,176,-2024,406,3507,-13,17,28,
741,7,10,2023,15,7,36,186,-2033,421,3498,-15,20,25,
742,7,10,2023,15,7,36,196,-2048,411,3488,-21,20,22,
743,7,10,2023,15,7,36,206,-2054,406,3484,-18,15,23,
744,7,10,2023,15,7,36,216,-2062,402,3482,-21,4,26,
745,7,10,2023,15,7,36,226,-2059,406,3477,-23,-4,26,
746,7,10,2023,15,7,36,236,-2046,405,3487,-26,-17,27,
747,7,10,2023,15,7,36,246,-2031,405,3491,-32,-20,21,
748,7,10,2023,15,7,36,256,-2050,401,3490,-35,-20,18,
749,7,10,2023,15,7,36,266,-2032,385,3507,-33,-25,22,
750,7,10,2023,15,7,36,276,-1994,402,3516,-26,-16,24,
751,7,10,2023,15,7,36,286,-2013,410,3518,-23,-3,27,
752,7,10,2023,15,7,36,296,-2022,393,3518,-19,6,30,
753,7,10,2023,15,7,36,306,-2023,404,3501,-10,16,33,
754,7,10,2023,15,7,36,316,-2052,416,3490,-15,14,35,
755,7,10,2023,15,7,36,326,-2066,417,3480,-24,8,27,
756,7,10,2023,15,7,36,336,-2062,410,3483,-32,-3,18,
757,7,10,2023,15,7,36,346,-2041,405,3498,-32,-11,10,
758,7,10,2023,15,7,36,356,-2033,416,3496,-32,-10,14,
759,7,10,2023,15,7,36,366,-2038,410,3491,-37,-11,8,
760,7,10,2023,15,7,36,376,-2053,400,3486,-40,-20,7,
761,7,10,2023,15,7,36,386,-2058,384,3490,-39,-30,9,
762,7,10,2023,15,7,36,396,-2043,404,3505,-34,-36,9,
763,7,10,2023,15,7,36,406,-2043,417,3511,-41,-42,7,
764,7,10,2023,15,7,36,416,-2052,422,3503,-56,-45,2,
765,7,10,2023,15,7,36,426,-2029,365,3520,-61,-50,-5,
766,7,10,2023,15,7,36,446,-2022,398,3517,-23,-31,17,
767,7,10,2023,15,7,36,456,-2017,420,3506,-28,-35,19,
768,7,10,2023,15,7,36,466,-2009,389,3520,-29,-30,12,
769,7,10,2023,15,7,36,476,-2018,396,3514,-23,-21,14,
770,7,10,2023,15,7,36,486,-2031,363,3516,-20,-16,15,
771,7,10,2023,15,7,36,496,-2013,353,3527,-16,-15,20,
772,7,10,2023,15,7,36,506,-2034,380,3497,-7,-8,28,
773,7,10,2023,15,7,36,516,-2063,404,3478,0,-15,36,
774,7,10,2023,15,7,36,526,-2062,383,3489,-9,-30,33,
775,7,10,2023,15,7,36,536,-2015,378,3524,-8,-38,37,
776,7,10,2023,15,7,36,546,-2009,363,3543,0,-30,35,
777,7,10,2023,15,7,36,556,-1998,367,3536,16,-9,42,
778,7,10,2023,15,7,36,566,-1995,379,3525,26,7,48,
779,7,10,2023,15,7,36,576,-2007,371,3524,28,10,47,
780,7,10,2023,15,7,36,586,-2012,363,3515,33,17,52,
781,7,10,2023,15,7,36,596,-2015,401,3511,44,18,59,
782,7,10,2023,15,7,36,606,-2011,424,3504,40,25,55,
783,7,10,2023,15,7,36,616,-2004,423,3511,30,20,50,
784,7,10,2023,15,7,36,626,-2013,415,3507,14,17,38,
785,7,10,2023,15,7,36,636,-2004,361,3526,2,13,31,
786,7,10,2023,15,7,36,646,-1992,323,3536,5,25,42,
787,7,10,2023,15,7,36,656,-2015,363,3544,12,37,60,
788,7,10,2023,15,7,36,666,-2041,385,3526,11,48,77,
789,7,10,2023,15,7,36,676,-2085,404,3513,-1,46,85,
790,7,10,2023,15,7,36,686,-2100,378,3489,-9,30,91,
791,7,10,2023,15,7,36,696,-2116,393,3481,1,14,101,
792,7,10,2023,15,7,36,706,-2139,379,3464,3,-18,116,
793,7,10,2023,15,7,36,716,-2132,412,3453,1,-58,129,
794,7,10,2023,15,7,36,726,-2064,456,3454,-11,-94,134,
795,7,10,2023,15,7,36,736,-1924,485,3451,-16,-115,116,
796,7,10,2023,15,7,36,746,-1875,529,3524,-8,-104,90,
797,7,10,2023,15,7,36,756,-1901,463,3504,-22,-71,60,
798,7,10,2023,15,7,36,766,-1906,435,3525,-20,-40,44,
799,7,10,2023,15,7,36,776,-1947,389,3546,-20,-11,39,
800,7,10,2023,15,7,36,786,-1998,380,3519,-9,11,43,
801,7,10,2023,15,7,36,796,-2018,372,3523,-4,14,64,
802,7,10,2023,15,7,36,806,-2033,359,3520,7,18,69,
803,7,10,2023,15,7,36,816,-2000,408,3518,27,29,86,
804,7,10,2023,15,7,36,826,-2012,406,3530,36,31,100,
805,7,10,2023,15,7,36,836,-2035,391,3521,36,52,89,
806,7,10,2023,15,7,36,846,-2036,401,3520,49,59,96,
807,7,10,2023,15,7,36,856,-2068,403,3507,64,70,116,
808,7,10,2023,15,7,36,866,-2055,364,3513,61,75,118,
809,7,10,2023,15,7,36,876,-2036,406,3509,76,73,138,
810,7,10,2023,15,7,36,886,-2073,401,3503,90,82,147,
811,7,10,2023,15,7,36,896,-2019,365,3490,97,78,163,
812,7,10,2023,15,7,36,906,-1943,411,3521,100,58,171,
813,7,10,2023,15,7,36,916,-1973,443,3507,111,62,178,
814,7,10,2023,15,7,36,926,-2040,410,3505,111,66,180,
815,7,10,2023,15,7,36,936,-1984,383,3511,95,57,161,
816,7,10,2023,15,7,36,946,-1973,410,3518,92,59,168,
817,7,10,2023,15,7,36,956,-2000,439,3497,87,79,178,
818,7,10,2023,15,7,36,966,-2003,401,3501,85,75,175,
819,7,10,2023,15,7,36,976,-2016,454,3506,106,90,187,
820,7,10,2023,15,7,36,986,-2023,458,3506,109,97,194,
821,7,10,2023,15,7,36,996,-2026,532,3482,112,98,193,
822,7,10,2023,15,7,37,6,-2088,584,3445,96,95,186,
823,7,10,2023,15,7,37,16,-2123,602,3417,80,55,160,
824,7,10,2023,15,7,37,26,-2079,576,3444,58,4,117,
825,7,10,2023,15,7,37,36,-2037,557,3482,37,-24,82,
826,7,10,2023,15,7,37,46,-2048,505,3509,9,-16,57,
827,7,10,2023,15,7,37,56,-2076,500,3475,0,5,48,
828,7,10,2023,15,7,37,66,-2068,496,3479,-8,-25,36,
829,7,10,2023,15,7,37,76,-2068,470,3485,-11,-36,34,
830,7,10,2023,15,7,37,86,-2047,432,3478,8,-23,41,
831,7,10,2023,15,7,37,96,-2074,464,3491,21,-17,52,
832,7,10,2023,15,7,37,106,-2093,487,3495,9,-32,47,
833,7,10,2023,15,7,37,116,-2053,489,3496,-4,-36,39,
834,7,10,2023,15,7,37,126,-2037,473,3487,-19,-32,33,
835,7,10,2023,15,7,37,136,-2045,463,3504,-41,-24,30,
836,7,10,2023,15,7,37,146,-2015,470,3496,-48,-54,33,
837,7,10,2023,15,7,37,156,-2003,467,3466,-58,-41,35,
838,7,10,2023,15,7,37,166,-1954,505,3478,-39,-48,28,
839,7,10,2023,15,7,37,176,-1947,515,3526,-35,-52,17,
840,7,10,2023,15,7,37,186,-1981,466,3533,-40,-11,10,
841,7,10,2023,15,7,37,196,-2010,439,3501,-34,15,12,
842,7,10,2023,15,7,37,206,-2039,437,3489,-25,15,19,
843,7,10,2023,15,7,37,216,-2068,429,3481,-19,14,25,
844,7,10,2023,15,7,37,226,-2049,452,3495,-7,-11,36,
845,7,10,2023,15,7,37,236,-2057,418,3496,-3,-15,32,
846,7,10,2023,15,7,37,246,-2052,428,3508,7,-14,42,
847,7,10,2023,15,7,37,256,-2025,500,3504,17,-13,52,
848,7,10,2023,15,7,37,266,-2022,507,3490,13,-13,39,
849,7,10,2023,15,7,37,276,-2035,501,3477,-5,-23,23,
850,7,10,2023,15,7,37,286,-2051,531,3477,-36,-50,-3,
851,7,10,2023,15,7,37,306,-2044,554,3487,-90,-97,-30,
852,7,10,2023,15,7,37,316,-2036,507,3498,-74,-88,-32,
853,7,10,2023,15,7,37,326,-1998,510,3495,-56,-81,-33,
854,7,10,2023,15,7,37,336,-2014,536,3486,-51,-72,-24,
855,7,10,2023,15,7,37,346,-1998,542,3489,-51,-59,-33,
856,7,10,2023,15,7,37,356,-1792,548,3522,-26,-42,-60,
857,7,10,2023,15,7,37,366,-1826,481,3431,-40,36,-101,
858,7,10,2023,15,7,37,376,-2043,385,3491,34,22,-95,
859,7,10,2023,15,7,37,386,-2105,500,3481,55,44,-51,
860,7,10,2023,15,7,37,396,-2014,444,3495,-8,-26,-56,
861,7,10,2023,15,7,37,406,-2044,459,3556,-38,-18,-58,
862,7,10,2023,15,7,37,416,-2057,375,3530,-99,2,-74,
863,7,10,2023,15,7,37,426,-2082,309,3538,-117,-34,-81,
864,7,10,2023,15,7,37,436,-1989,318,3518,-126,-46,-75,
865,7,10,2023,15,7,37,446,-1964,374,3497,-117,-59,-67,
866,7,10,2023,15,7,37,456,-1990,429,3482,-119,-68,-71,
867,7,10,2023,15,7,37,466,-1957,502,3480,-123,-73,-71,
868,7,10,2023,15,7,37,476,-1973,489,3511,-128,-69,-68,
869,7,10,2023,15,7,37,486,-2014,484,3506,-139,-67,-63,
870,7,10,2023,15,7,37,496,-2032,512,3490,-155,-81,-61,
871,7,10,2023,15,7,37,506,-2011,525,3477,-168,-100,-57,
872,7,10,2023,15,7,37,516,-2036,406,3527,-154,-96,-31,
873,7,10,2023,15,7,37,526,-1980,427,3530,-83,-73,5,
874,7,10,2023,15,7,37,536,-1998,447,3533,-71,-61,11,
875,7,10,2023,15,7,37,546,-2002,459,3526,-63,-61,8,
876,7,10,2023,15,7,37,556,-2013,425,3515,-62,-62,-2,
877,7,10,2023,15,7,37,566,-2000,393,3518,-63,-56,-3,
878,7,10,2023,15,7,37,576,-1976,371,3505,-42,-47,2,
879,7,10,2023,15,7,37,586,-1949,391,3526,-7,-28,14,
880,7,10,2023,15,7,37,596,-1967,426,3534,10,-11,16,
881,7,10,2023,15,7,37,606,-2005,447,3521,5,4,7,
882,7,10,2023,15,7,37,616,-2024,444,3510,4,2,3,
883,7,10,2023,15,7,37,626,-2013,423,3523,3,-8,-4,
884,7,10,2023,15,7,37,636,-1998,403,3518,1,0,-5,
885,7,10,2023,15,7,37,646,-1981,390,3545,9,3,8,
886,7,10,2023,15,7,37,656,-1962,385,3533,16,17,17,
887,7,10,2023,15,7,37,666,-1951,414,3516,26,29,20,
888,7,10,2023,15,7,37,676,-1955,440,3522,43,31,26,
889,7,10,2023,15,7,37,686,-2001,429,3522,24,49,13,
890,7,10,2023,15,7,37,696,-2026,389,3467,18,50,7,
891,7,10,2023,15,7,37,706,-2003,417,3459,7,28,4,
892,7,10,2023,15,7,37,716,-1962,414,3511,7,9,6,
893,7,10,2023,15,7,37,726,-1936,474,3491,3,22,1,
894,7,10,2023,15,7,37,736,-1941,503,3529,4,22,-1,
895,7,10,2023,15,7,37,746,-2008,430,3533,-9,34,-14,
896,7,10,2023,15,7,37,756,-2040,387,3503,-7,30,-19,
897,7,10,2023,15,7,37,766,-2024,414,3510,2,0,-10,
898,7,10,2023,15,7,37,776,-1992,418,3487,3,10,-6,
899,7,10,2023,15,7,37,786,-1991,398,3542,1,-7,-1,
900,7,10,2023,15,7,37,796,-2033,383,3536,3,15,0,
901,7,10,2023,15,7,37,806,-2004,353,3534,5,9,4,
902,7,10,2023,15,7,37,816,-1979,389,3550,22,23,17,
903,7,10,2023,15,7,37,826,-1986,429,3541,25,41,26,
904,7,10,2023,15,7,37,836,-2014,411,3525,15,49,9,
905,7,10,2023,15,7,37,846,-2008,371,3534,17,44,5,
906,7,10,2023,15,7,37,856,-2004,342,3563,23,37,7,
907,7,10,2023,15,7,37,866,-2002,363,3546,37,65,18,
908,7,10,2023,15,7,37,876,-1996,364,3545,59,72,29,
909,7,10,2023,15,7,37,886,-2000,367,3545,74,83,41,
910,7,10,2023,15,7,37,896,-2006,389,3535,91,104,54,
911,7,10,2023,15,7,37,906,-2005,402,3528,99,107,51,
912,7,10,2023,15,7,37,916,-2015,400,3527,101,113,49,
913,7,10,2023,15,7,37,926,-2024,419,3531,103,108,49,
914,7,10,2023,15,7,37,936,-2055,449,3493,98,118,54,
915,7,10,2023,15,7,37,946,-2028,472,3478,92,98,49,
916,7,10,2023,15,7,37,956,-2001,465,3518,79,75,36,
917,7,10,2023,15,7,37,966,-2024,442,3492,67,83,19,
918,7,10,2023,15,7,37,976,-2014,442,3480,65,91,12,
919,7,10,2023,15,7,37,986,-2009,463,3491,61,78,9,
920,7,10,2023,15,7,37,996,-1996,482,3489,57,75,-2,
921,7,10,2023,15,7,38,6,-2006,492,3481,46,76,-23,
922,7,10,2023,15,7,38,16,-2051,478,3510,26,66,-44,
923,7,10,2023,15,7,38,26,-2029,420,3498,10,75,-51,
924,7,10,2023,15,7,38,36,-1986,416,3538,20,86,-38,
925,7,10,2023,15,7,38,46,-2012,426,3528,29,105,-30,
926,7,10,2023,15,7,38,56,-2022,410,3522,39,121,-23,
927,7,10,2023,15,7,38,66,-1996,364,3546,54,138,-14,
928,7,10,2023,15,7,38,76,-2047,389,3513,75,163,5,
929,7,10,2023,15,7,38,86,-2111,432,3469,94,161,23,
930,7,10,2023,15,7,38,96,-2112,458,3460,92,140,28,
931,7,10,2023,15,7,38,106,-2073,486,3485,79,117,27,
932,7,10,2023,15,7,38,116,-2046,507,3487,65,110,18,
933,7,10,2023,15,7,38,126,-2042,512,3478,48,103,9,
934,7,10,2023,15,7,38,136,-2032,527,3472,30,106,-5,
935,7,10,2023,15,7,38,146,-2020,507,3502,8,109,-19,
936,7,10,2023,15,7,38,166,-2152,488,3416,-16,96,-39,
937,7,10,2023,15,7,38,176,-2126,483,3420,-37,52,-38,
938,7,10,2023,15,7,38,186,-2069,473,3476,-52,23,-44,
939,7,10,2023,15,7,38,196,-2036,431,3503,-52,20,-46,
940,7,10,2023,15,7,38,206,-2019,454,3504,-40,40,-43,
941,7,10,2023,15,7,38,216,-2057,435,3503,-43,55,-47,
942,7,10,2023,15,7,38,226,-2102,426,3474,-42,52,-51,
943,7,10,2023,15,7,38,236,-2122,384,3474,-41,38,-45,
944,7,10,2023,15,7,38,246,-2090,364,3470,-32,24,-30,
945,7,10,2023,15,7,38,256,-2019,358,3522,-20,19,-18,
946,7,10,2023,15,7,38,266,-2037,358,3502,3,35,-6,
947,7,10,2023,15,7,38,276,-2062,413,3485,20,46,6,
948,7,10,2023,15,7,38,286,-2057,426,3503,25,44,14,
949,7,10,2023,15,7,38,296,-2082,394,3490,19,51,14,
950,7,10,2023,15,7,38,306,-2097,424,3468,34,50,22,
951,7,10,2023,15,7,38,316,-2069,437,3480,34,41,29,
952,7,10,2023,15,7,38,326,-2013,435,3503,41,48,34,
953,7,10,2023,15,7,38,336,-2018,468,3495,48,73,32,
954,7,10,2023,15,7,38,346,-2033,466,3481,40,87,27,
955,7,10,2023,15,7,38,356,-2035,461,3475,35,90,16,
956,7,10,2023,15,7,38,366,-2090,458,3462,19,94,0,
957,7,10,2023,15,7,38,376,-2155,434,3419,-3,72,-12,
958,7,10,2023,15,7,38,386,-2127,386,3432,-20,32,-11,
959,7,10,2023,15,7,38,396,-2082,411,3449,-11,10,7,
960,7,10,2023,15,7,38,406,-2051,470,3483,-4,-3,26,
961,7,10,2023,15,7,38,416,-2064,479,3494,-6,11,21,
962,7,10,2023,15,7,38,426,-2091,431,3466,-4,31,14,
963,7,10,2023,15,7,38,436,-2110,462,3455,5,38,19,
964,7,10,2023,15,7,38,446,-2115,468,3431,-22,-14,8,
965,7,10,2023,15,7,38,456,-2096,456,3452,-31,-37,11,
966,7,10,2023,15,7,38,466,-2094,429,3467,-32,-44,15,
967,7,10,2023,15,7,38,476,-2131,484,3436,-25,-49,27,
968,7,10,2023,15,7,38,486,-2103,502,3463,-28,-64,29,
969,7,10,2023,15,7,38,496,-2073,454,3474,-45,-76,17,
970,7,10,2023,15,7,38,506,-2035,427,3483,-47,-80,14,
971,7,10,2023,15,7,38,516,-2016,421,3518,-45,-70,11,
972,7,10,2023,15,7,38,526,-2029,421,3516,-36,-48,16,
973,7,10,2023,15,7,38,536,-2046,411,3490,-21,-23,22,
974,7,10,2023,15,7,38,546,-2034,446,3481,-2,-4,29,
975,7,10,2023,15,7,38,556,-2057,478,3487,5,11,29,
976,7,10,2023,15,7,38,566,-2079,430,3485,1,19,31,
977,7,10,2023,15,7,38,576,-2076,403,3470,2,22,32,
978,7,10,2023,15,7,38,586,-2083,433,3460,11,13,31,
979,7,10,2023,15,7,38,596,-2102,463,3439,13,5,32,
980,7,10,2023,15,7,38,606,-2064,490,3442,7,-10,32,
981,7,10,2023,15,7,38,616,-2024,542,3483,-5,-15,20,
982,7,10,2023,15,7,38,626,-2048,486,3466,-27,0,-3,
983,7,10,2023,15,7,38,636,-2050,394,3477,-28,8,-12,
984,7,10,2023,15,7,38,646,-2063,418,3466,-15,23,-5,
985,7,10,2023,15,7,38,656,-2070,426,3471,-5,24,0,
986,7,10,2023,15,7,38,666,-2063,418,3475,2,25,5,
987,7,10,2023,15,7,38,676,-2061,431,3481,8,33,3,
988,7,10,2023,15,7,38,686,-2076,445,3474,10,30,4,
989,7,10,2023,15,7,38,696,-2087,455,3461,1,27,5,
990,7,10,2023,15,7,38,706,-2067,454,3467,-7,25,-1,
991,7,10,2023,15,7,38,716,-2066,457,3463,-11,22,-9,
992,7,10,2023,15,7,38,726,-2062,461,3469,-17,18,-12,
993,7,10,2023,15,7,38,736,-2055,447,3483,-21,20,-16,
994,7,10,2023,15,7,38,746,-2062,448,3474,-21,32,-22,
995,7,10,2023,15,7,38,756,-2068,422,3471,-19,38,-27,
996,7,10,2023,15,7,38,766,-2090,384,3458,-16,37,-26,
997,7,10,2023,15,7,38,776,-2088,359,3473,-4,35,-18,
998,7,10,2023,15,7,38,786,-2119,401,3461,6,25,-1,
999,7,10,2023,15,7,38,796,-2148,397,3446,4,5,8,
1000,7,10,2023,15,7,38,806,-2108,423,3455,6,-4,18,
1001,7,10,2023,15,7,38,816,-2078,444,3458,7,-18,25,
1002,7,10,2023,15,7,38,826,-2063,434,3449,6,-26,19,
1003,7,10,2023,15,7,38,836,-2043,453,3480,5,-28,19,
1004,7,10,2023,15,7,38,846,-2064,421,3484,8,-16,21,
1005,7,10,2023,15,7,38,856,-2042,431,3478,17,-8,24,
1006,7,10,2023,15,7,38,866,-2039,433,3476,24,9,24,
1007,7,10,2023,15,7,38,876,-2064,445,3477,27,20,23,
1008,7,10,2023,15,7,38,886,-2079,437,3476,24,20,18,
1009,7,10,2023,15,7,38,896,-2106,451,3463,21,18,18,
1010,7,10,2023,15,7,38,906,-2113,471,3469,13,6,21,
1011,7,10,2023,15,7,38,916,-2106,447,3453,-1,-8,18,
1012,7,10,2023,15,7,38,926,-2095,464,3441,-5,-22,17,
1013,7,10,2023,15,7,38,936,-2064,442,3471,-14,-32,13,
1014,7,10,2023,15,7,38,946,-2082,465,3470,-12,-32,8,
1015,7,10,2023,15,7,38,956,-2088,462,3455,-23,-33,3,
1016,7,10,2023,15,7,38,966,-2058,455,3469,-29,-38,2,
1017,7,10,2023,15,7,38,976,-2043,446,3474,-29,-36,-4,
1018,7,10,2023,15,7,38,986,-2062,447,3478,-27,-32,-8,
1019,7,10,2023,15,7,38,996,-2079,422,3482,-32,-26,-9,
1020,7,10,2023,15,7,39,6,-2071,417,3478,-31,-27,-12,
1021,7,10,2023,15,7,39,26,-2050,438,3482,-20,-24,-7,
1022,7,10,2023,15,7,39,36,-2062,473,3476,-20,-18,-10,
1023,7,10,2023,15,7,39,46,-2083,413,3474,-27,-14,-15,
1024,7,10,2023,15,7,39,56,-2066,368,3490,-25,-16,-13,
1025,7,10,2023,15,7,39,66,-2060,429,3470,-9,-3,0,
1026,7,10,2023,15,7,39,76,-2039,467,3484,-10,3,-4,
1027,7,10,2023,15,7,39,86,-2073,458,3471,-20,6,-11,
1028,7,10,2023,15,7,39,96,-2086,432,3477,-33,6,-18,
1029,7,10,2023,15,7,39,106,-2070,398,3487,-35,2,-24,
1030,7,10,2023,15,7,39,116,-2071,405,3480,-24,5,-14,
1031,7,10,2023,15,7,39,126,-2046,442,3477,-14,14,-8,
1032,7,10,2023,15,7,39,136,-2046,446,3467,-13,21,-13,
1033,7,10,2023,15,7,39,146,-2070,417,3472,-14,25,-15,
1034,7,10,2023,15,7,39,156,-2067,410,3480,-12,20,-13,
1035,7,10,2023,15,7,39,166,-2079,445,3469,-15,20,-14,
1036,7,10,2023,15,7,39,176,-2100,417,3471,-18,16,-15,
1037,7,10,2023,15,7,39,186,-2079,434,3481,-12,14,-13,
1038,7,10,2023,15,7,39,196,-2064,460,3469,-16,16,-17,
1039,7,10,2023,15,7,39,206,-2066,472,3465,-30,11,-28,
1040,7,10,2023,15,7,39,216,-2090,459,3455,-42,7,-34,
1041,7,10,2023,15,7,39,226,-2078,409,3472,-54,-3,-43,
1042,7,10,2023,15,7,39,236,-2084,386,3482,-50,-9,-42,
1043,7,10,2023,15,7,39,246,-2090,395,3482,-40,-5,-34,
1044,7,10,2023,15,7,39,256,-2078,402,3483,-36,-8,-28,
1045,7,10,2023,15,7,39,266,-2065,403,3486,-33,-7,-23,
1046,7,10,2023,15,7,39,276,-2059,404,3480,-33,-7,-21,
1047,7,10,2023,15,7,39,286,-2068,417,3475,-30,-2,-17,
1048,7,10,2023,15,7,39,296,-2078,396,3481,-28,5,-14,
1049,7,10,2023,15,7,39,306,-2076,395,3480,-19,2,-14,
1050,7,10,2023,15,7,39,316,-2061,413,3471,-10,0,-9,
1051,7,10,2023,15,7,39,326,-2055,435,3481,-10,1,-9,
1052,7,10,2023,15,7,39,336,-2074,440,3475,-14,7,-14,
1053,7,10,2023,15,7,39,346,-2069,432,3473,-23,6,-22,
1054,7,10,2023,15,7,39,356,-2070,416,3477,-29,3,-28,
1055,7,10,2023,15,7,39,366,-2087,367,3474,-18,9,-11,
1056,7,10,2023,15,7,39,376,-2078,397,3480,-11,12,-5,
1057,7,10,2023,15,7,39,386,-2075,400,3480,-2,14,0,
1058,7,10,2023,15,7,39,396,-2073,398,3470,4,19,5,
1059,7,10,2023,15,7,39,406,-2074,430,3465,5,20,8,
1060,7,10,2023,15,7,39,416,-2077,424,3474,-5,12,0,
1061,7,10,2023,15,7,39,426,-2079,413,3472,-11,3,-7,
1062,7,10,2023,15,7,39,436,-2084,406,3481,-8,2,-5,
1063,7,10,2023,15,7,39,446,-2082,405,3482,-8,1,-5,
1064,7,10,2023,15,7,39,456,-2086,419,3467,-13,-4,-3,
1065,7,10,2023,15,7,39,466,-2075,419,3460,-15,-9,-2,
1066,7,10,2023,15,7,39,476,-2069,405,3466,-14,-9,-4,
1067,7,10,2023,15,7,39,486,-2080,385,3473,-13,-6,-5,
1068,7,10,2023,15,7,39,496,-2078,376,3484,-13,-1,3,
1069,7,10,2023,15,7,39,506,-2085,385,3478,-1,-3,13,
1070,7,10,2023,15,7,39,516,-2079,387,3481,8,-8,18,
1071,7,10,2023,15,7,39,526,-2074,396,3475,14,-4,20,
1072,7,10,2023,15,7,39,536,-2065,423,3477,17,-1,25,
1073,7,10,2023,15,7,39,546,-2069,418,3479,16,5,18,
1074,7,10,2023,15,7,39,556,-2080,412,3465,10,5,11,
1075,7,10,2023,15,7,39,566,-2077,405,3473,7,0,9,
1076,7,10,2023,15,7,39,576,-2076,421,3472,11,-4,9,
1077,7,10,2023,15,7,39,586,-2077,428,3468,5,-5,7,
1078,7,10,2023,15,7,39,596,-2071,431,3472,-6,-9,2,
1079,7,10,2023,15,7,39,606,-2068,419,3477,-11,-6,-3,
1080,7,10,2023,15,7,39,616,-2076,403,3477,-15,-9,-6,
1081,7,10,2023,15,7,39,626,-2075,398,3476,-16,-10,-5,
1082,7,10,2023,15,7,39,636,-2068,395,3481,-16,-13,-7,
1083,7,10,2023,15,7,39,646,-2066,393,3469,-13,-6,-1,
1084,7,10,2023,15,7,39,656,-2061,405,3465,-10,-5,-1,
1085,7,10,2023,15,7,39,666,-2069,408,3477,-13,-10,-2,
1086,7,10,2023,15,7,39,676,-2082,394,3480,-11,-10,0,
1087,7,10,2023,15,7,39,686,-2078,405,3480,-6,-7,1,
1088,7,10,2023,15,7,39,696,-2079,406,3477,-4,-8,3,
1089,7,10,2023,15,7,39,706,-2078,402,3484,-7,-13,3,
1090,7,10,2023,15,7,39,716,-2075,396,3477,-5,-19,6,
1091,7,10,2023,15,7,39,726,-2080,398,3481,2,-17,11,
1092,7,10,2023,15,7,39,736,-2076,406,3482,5,-21,12,
1093,7,10,2023,15,7,39,746,-2077,399,3478,6,-20,13,
1094,7,10,2023,15,7,39,756,-2079,401,3482,12,-20,16,
1095,7,10,2023,15,7,39,766,-2083,398,3479,21,-20,19,
1096,7,10,2023,15,7,39,776,-2089,391,3474,30,-26,26,
1097,7,10,2023,15,7,39,786,-2082,365,3483,38,-31,31,
1098,7,10,2023,15,7,39,796,-2071,391,3477,48,-36,41,
1099,7,10,2023,15,7,39,806,-2062,422,3482,42,-37,48,
1100,7,10,2023,15,7,39,816,-2071,421,3481,30,-36,43,
1101,7,10,2023,15,7,39,826,-2069,415,3469,25,-44,40,
1102,7,10,2023,15,7,39,836,-2069,411,3474,25,-44,39,
1103,7,10,2023,15,7,39,846,-2068,419,3477,20,-44,39,
1104,7,10,2023,15,7,39,856,-2065,426,3488,13,-48,29,
1105,7,10,2023,15,7,39,866,-2046,432,3487,9,-51,28,
1106,7,10,2023,15,7,39,886,-2055,411,3479,1,-51,25,
1107,7,10,2023,15,7,39,896,-2025,405,3479,3,-44,19,
1108,7,10,2023,15,7,39,906,-2026,424,3486,5,-33,15,
1109,7,10,2023,15,7,39,916,-2045,431,3489,4,-18,14,
1110,7,10,2023,15,7,39,926,-2045,416,3477,-2,-14,5,
1111,7,10,2023,15,7,39,936,-2050,413,3486,-7,-13,3,
1112,7,10,2023,15,7,39,946,-2048,413,3487,-2,-10,3,
1113,7,10,2023,15,7,39,956,-2054,418,3485,-2,-5,4,
1114,7,10,2023,15,7,39,966,-2061,413,3490,-5,-8,4,
1115,7,10,2023,15,7,39,976,-2064,408,3486,-5,-10,1,
1116,7,10,2023,15,7,39,986,-2064,405,3488,-1,-9,3,
1117,7,10,2023,15,7,39,996,-2063,414,3487,-3,-10,7,
1118,7,10,2023,15,7,40,6,-2063,417,3488,-7,-14,2,
1119,7,10,2023,15,7,40,16,-2072,413,3485,-10,-13,-2,
1120,7,10,2023,15,7,40,26,-2060,412,3488,-6,-18,2,
1121,7,10,2023,15,7,40,36,-2065,414,3483,-7,-21,2,
1122,7,10,2023,15,7,40,46,-2060,409,3485,-14,-26,0,
1123,7,10,2023,15,7,40,56,-2063,420,3481,-17,-30,-4,
1124,7,10,2023,15,7,40,66,-2071,431,3485,-23,-32,-6,
1125,7,10,2023,15,7,40,76,-2064,419,3481,-26,-46,-7,
1126,7,10,2023,15,7,40,86,-2055,414,3471,-28,-56,-10,
1127,7,10,2023,15,7,40,96,-2037,387,3485,-28,-56,-9,
1128,7,10,2023,15,7,40,106,-2047,373,3500,-21,-44,2,
1129,7,10,2023,15,7,40,116,-2061,393,3510,-11,-37,12,
1130,7,10,2023,15,7,40,126,-2041,394,3503,-5,-40,15,
1131,7,10,2023,15,7,40,136,-2024,411,3506,1,-42,20,
1132,7,10,2023,15,7,40,146,-2032,413,3497,3,-37,19,
1133,7,10,2023,15,7,40,156,-2020,398,3500,1,-24,17,
1134,7,10,2023,15,7,40,166,-2023,431,3493,5,-14,14,
1135,7,10,2023,15,7,40,176,-2032,420,3491,2,-9,2,
1136,7,10,2023,15,7,40,186,-2036,399,3496,-1,-7,-1,
1137,7,10,2023,15,7,40,196,-2057,410,3496,0,-7,4,
1138,7,10,2023,15,7,40,206,-2044,405,3490,0,-8,1,
1139,7,10,2023,15,7,40,216,-2041,390,3497,1,-9,4,
1140,7,10,2023,15,7,40,226,-2044,398,3491,0,-5,6,
1141,7,10,2023,15,7,40,236,-2042,399,3503,2,-5,10,
1142,7,10,2023,15,7,40,246,-2039,402,3506,6,0,14,
1143,7,10,2023,15,7,40,256,-2046,408,3503,11,3,15,
1144,7,10,2023,15,7,40,266,-2044,408,3499,9,3,16,
1145,7,10,2023,15,7,40,276,-2035,401,3487,7,3,15,
1146,7,10,2023,15,7,40,286,-2033,412,3490,14,5,14,
1147,7,10,2023,15,7,40,296,-2047,408,3484,4,3,15,
1148,7,10,2023,15,7,40,306,-2042,409,3488,7,-1,14,
1149,7,10,2023,15,7,40,316,-2047,412,3487,6,-4,11,
1150,7,10,2023,15,7,40,326,-2052,406,3488,7,-10,14,
1151,7,10,2023,15,7,40,336,-2049,404,3495,9,-10,14,
1152,7,10,2023,15,7,40,346,-2031,418,3493,8,-10,12,
1153,7,10,2023,15,7,40,356,-2043,422,3487,3,-5,11,
1154,7,10,2023,15,7,40,366,-2056,416,3491,2,-9,5,
1155,7,10,2023,15,7,40,376,-2045,405,3505,-1,-9,3,
1156,7,10,2023,15,7,40,386,-2039,412,3501,0,-8,8,
1157,7,10,2023,15,7,40,396,-2036,406,3504,-1,-8,8,
1158,7,10,2023,15,7,40,406,-2033,393,3490,2,-2,6,
1159,7,10,2023,15,7,40,416,-2021,409,3486,5,2,9,
1160,7,10,2023,15,7,40,426,-2024,411,3485,4,3,8,
1161,7,10,2023,15,7,40,436,-2044,402,3490,4,6,9,
1162,7,10,2023,15,7,40,446,-2040,404,3490,6,8,10,
1163,7,10,2023,15,7,40,456,-2038,409,3492,1,10,3,
1164,7,10,2023,15,7,40,466,-2044,412,3501,1,6,3,
1165,7,10,2023,15,7,40,476,-2044,416,3486,-1,8,4,
1166,7,10,2023,15,7,40,486,-2049,404,3488,-1,5,-1,
1167,7,10,2023,15,7,40,496,-2047,414,3498,2,-3,4,
1168,7,10,2023,15,7,40,506,-2038,416,3497,1,-2,6,
1169,7,10,2023,15,7,40,516,-2034,399,3495,-1,3,6,
1170,7,10,2023,15,7,40,526,-2040,395,3498,1,4,7,
1171,7,10,2023,15,7,40,536,-2035,406,3492,3,2,12,
1172,7,10,2023,15,7,40,546,-2037,413,3497,8,1,12,
1173,7,10,2023,15,7,40,556,-2032,407,3491,10,5,9,
1174,7,10,2023,15,7,40,566,-2034,409,3497,6,11,7,
1175,7,10,2023,15,7,40,576,-2038,416,3496,5,15,5,
1176,7,10,2023,15,7,40,586,-2042,404,3491,3,14,2,
1177,7,10,2023,15,7,40,596,-2040,401,3494,7,13,7,
1178,7,10,2023,15,7,40,606,-2034,406,3503,8,16,8,
1179,7,10,2023,15,7,40,616,-2033,412,3490,7,19,6,
1180,7,10,2023,15,7,40,626,-2038,416,3491,9,20,7,
1181,7,10,2023,15,7,40,636,-2032,412,3487,14,25,3,
1182,7,10,2023,15,7,40,646,-2031,416,3491,11,31,0,
1183,7,10,2023,15,7,40,656,-2059,410,3492,9,26,2,
1184,7,10,2023,15,7,40,666,-2049,409,3504,9,28,0,
1185,7,10,2023,15,7,40,676,-2043,405,3501,10,29,-4,
1186,7,10,2023,15,7,40,686,-2036,409,3490,17,27,4,
1187,7,10,2023,15,7,40,696,-2036,416,3486,16,32,1,
1188,7,10,2023,15,7,40,706,-2036,407,3488,11,37,-2,
1189,7,10,2023,15,7,40,716,-2036,417,3477,12,42,-1,
1190,7,10,2023,15,7,40,726,-2043,422,3482,12,41,-1,
1191,7,10,2023,15,7,40,746,-2066,409,3490,14,42,-2,
1192,7,10,2023,15,7,40,756,-2057,405,3480,10,36,0,
1193,7,10,2023,15,7,40,766,-2039,416,3486,7,34,5,
1194,7,10,2023,15,7,40,776,-2038,426,3488,7,36,-1,
1195,7,10,2023,15,7,40,786,-2065,407,3490,5,32,-2,
1196,7,10,2023,15,7,40,796,-2059,396,3487,1,36,-5,
1197,7,10,2023,15,7,40,806,-2063,396,3481,3,37,-2,
1198,7,10,2023,15,7,40,816,-2064,404,3487,6,33,0,
1199,7,10,2023,15,7,40,826,-2049,408,3485,8,32,3,
1200,7,10,2023,15,7,40,836,-2039,408,3481,13,31,1,
1201,7,10,2023,15,7,40,846,-2054,417,3474,14,37,3,
1202,7,10,2023,15,7,40,856,-2061,414,3481,12,37,1,
1203,7,10,2023,15,7,40,866,-2064,413,3487,8,34,-4,
1204,7,10,2023,15,7,40,876,-2066,404,3491,6,35,2,
1205,7,10,2023,15,7,40,886,-2066,410,3491,12,34,5,
1206,7,10,2023,15,7,40,896,-2067,406,3484,14,28,7,
1207,7,10,2023,15,7,40,906,-2070,406,3473,13,25,12,
1208,7,10,2023,15,7,40,916,-2068,407,3480,14,22,12,
1209,7,10,2023,15,7,40,926,-2065,409,3487,13,18,13,
1210,7,10,2023,15,7,40,936,-2058,425,3471,11,11,16,
1211,7,10,2023,15,7,40,946,-2051,422,3469,7,15,13,
1212,7,10,2023,15,7,40,956,-2059,421,3489,7,15,8,
1213,7,10,2023,15,7,40,966,-2054,418,3476,7,17,6,
1214,7,10,2023,15,7,40,976,-2060,410,3473,4,24,2,
1215,7,10,2023,15,7,40,986,-2061,401,3487,5,21,4,
1216,7,10,2023,15,7,40,996,-2071,408,3495,6,22,9,
1217,7,10,2023,15,7,41,6,-2078,405,3486,5,19,9,
1218,7,10,2023,15,7,41,16,-2067,405,3482,13,17,12,
1219,7,10,2023,15,7,41,26,-2065,410,3484,15,16,13,
1220,7,10,2023,15,7,41,36,-2057,419,3477,13,17,20,
1221,7,10,2023,15,7,41,46,-2050,413,3475,11,20,17,
1222,7,10,2023,15,7,41,56,-2052,407,3476,17,24,16,
1223,7,10,2023,15,7,41,66,-2063,409,3474,24,21,21,
1224,7,10,2023,15,7,41,76,-2066,402,3475,26,26,23,
1225,7,10,2023,15,7,41,86,-2063,414,3480,26,33,22,
1226,7,10,2023,15,7,41,96,-2071,417,3473,24,33,21,
1227,7,10,2023,15,7,41,106,-2061,422,3475,23,29,16,
1228,7,10,2023,15,7,41,116,-2056,423,3486,20,29,15,
1229,7,10,2023,15,7,41,126,-2078,437,3480,19,33,17,
1230,7,10,2023,15,7,41,136,-2070,434,3479,11,25,15,
1231,7,10,2023,15,7,41,146,-2065,428,3489,3,25,5,
1232,7,10,2023,15,7,41,156,-2081,431,3475,4,21,2,
1233,7,10,2023,15,7,41,166,-2073,426,3478,5,20,6,
1234,7,10,2023,15,7,41,176,-2071,425,3477,1,19,5,
1235,7,10,2023,15,7,41,186,-2070,410,3477,-1,16,2,
1236,7,10,2023,15,7,41,196,-2076,410,3466,0,15,0,
1237,7,10,2023,15,7,41,206,-2077,390,3476,4,17,2,
1238,7,10,2023,15,7,41,216,-2088,426,3472,11,16,9,
1239,7,10,2023,15,7,41,226,-2079,421,3475,11,7,9,
1240,7,10,2023,15,7,41,236,-2075,426,3476,12,6,12,
1241,7,10,2023,15,7,41,246,-2083,431,3471,12,7,11,
1242,7,10,2023,15,7,41,256,-2077,419,3476,6,2,7,
1243,7,10,2023,15,7,41,266,-2078,416,3475,2,1,6,
1244,7,10,2023,15,7,41,276,-2072,421,3468,0,-1,5,
1245,7,10,2023,15,7,41,286,-2069,424,3468,1,-6,3,
1246,7,10,2023,15,7,41,296,-2071,414,3480,-3,-7,2,
1247,7,10,2023,15,7,41,306,-2074,415,3480,-3,-6,2,
1248,7,10,2023,15,7,41,316,-2066,424,3472,-1,-3,0,
1249,7,10,2023,15,7,41,326,-2065,417,3471,-2,-1,3,
1250,7,10,2023,15,7,41,336,-2069,403,3475,-6,-5,5,
1251,7,10,2023,15,7,41,346,-2073,401,3474,-3,-6,2,
1252,7,10,2023,15,7,41,356,-2072,411,3472,3,-3,8,
1253,7,10,2023,15,7,41,366,-2077,410,3480,8,-6,12,
1254,7,10,2023,15,7,41,376,-2060,424,3481,9,-9,13,
1255,7,10,2023,15,7,41,386,-2059,429,3481,6,-10,9,
1256,7,10,2023,15,7,41,396,-2068,420,3478,4,-7,9,
1257,7,10,2023,15,7,41,406,-2070,418,3479,8,-1,11,
1258,7,10,2023,15,7,41,416,-2064,431,3483,8,3,7,
1259,7,10,2023,15,7,41,426,-2066,412,3476,5,9,6,
1260,7,10,2023,15,7,41,436,-2069,415,3474,7,3,9,
1261,7,10,2023,15,7,41,446,-2074,429,3474,9,0,10,
1262,7,10,2023,15,7,41,456,-2061,412,3471,2,1,4,
1263,7,10,2023,15,7,41,466,-2069,413,3473,0,-7,6,
1264,7,10,2023,15,7,41,476,-2076,424,3471,3,-7,8,
1265,7,10,2023,15,7,41,486,-2068,418,3474,-1,-5,2,
1266,7,10,2023,15,7,41,496,-2070,412,3478,0,-8,5,
1267,7,10,2023,15,7,41,506,-2064,423,3476,-1,-7,6,
1268,7,10,2023,15,7,41,516,-2055,426,3482,-3,-5,9,
1269,7,10,2023,15,7,41,526,-2070,421,3482,-9,-8,4,
1270,7,10,2023,15,7,41,536,-2061,408,3485,-9,-6,2,
1271,7,10,2023,15,7,41,546,-2065,419,3481,-6,-5,5,
1272,7,10,2023,15,7,41,556,-2061,419,3480,-5,-2,6,
1273,7,10,2023,15,7,41,566,-2063,414,3478,-5,3,2,
1274,7,10,2023,15,7,41,576,-2064,410,3481,-6,3,0,
1275,7,10,2023,15,7,41,586,-2063,415,3482,-6,4,0,
1276,7,10,2023,15,7,41,606,-2071,422,3473,-5,1,2,
1277,7,10,2023,15,7,41,616,-2067,424,3468,-6,2,0,
1278,7,10,2023,15,7,41,626,-2071,416,3483,-4,-1,4,
1279,7,10,2023,15,7,41,636,-2072,408,3480,-5,0,2,
1280,7,10,2023,15,7,41,646,-2065,415,3477,-4,0,3,
1281,7,10,2023,15,7,41,656,-2061,416,3478,-3,2,4,
1282,7,10,2023,15,7,41,666,-2060,411,3474,-1,3,2,
1283,7,10,2023,15,7,41,676,-2063,408,3478,2,7,4,
1284,7,10,2023,15,7,41,686,-2071,421,3476,1,14,3,
1285,7,10,2023,15,7,41,696,-2072,418,3467,2,7,5,
1286,7,10,2023,15,7,41,706,-2069,412,3483,2,8,4,
1287,7,10,2023,15,7,41,716,-2066,416,3479,1,10,6,
1288,7,10,2023,15,7,41,726,-2060,420,3477,0,11,2,
1289,7,10,2023,15,7,41,736,-2057,421,3482,1,11,2,
1290,7,10,2023,15,7,41,746,-2072,419,3477,-1,15,4,
1291,7,10,2023,15,7,41,756,-2073,422,3480,0,9,0,
1292,7,10,2023,15,7,41,766,-2066,413,3481,0,12,1,
1293,7,10,2023,15,7,41,776,-2074,411,3473,-4,13,0,
1294,7,10,2023,15,7,41,786,-2078,419,3484,-4,11,-1,
1295,7,10,2023,15,7,41,796,-2073,418,3480,-2,10,-4,
1296,7,10,2023,15,7,41,806,-2072,418,3482,-5,6,-3,
1297,7,10,2023,15,7,41,816,-2074,407,3471,-7,7,-3,
1298,7,10,2023,15,7,41,826,-2072,417,3474,-4,13,-4,
1299,7,10,2023,15,7,41,836,-2067,409,3476,-6,7,-5,
1300,7,10,2023,15,7,41,846,-2072,408,3475,-6,5,-3,
1301,7,10,2023,15,7,41,856,-2077,415,3488,-4,5,-3,
1302,7,10,2023,15,7,41,866,-2076,417,3482,-2,5,-4,
1303,7,10,2023,15,7,41,876,-2068,409,3472,-4,4,-2,
1304,7,10,2023,15,7,41,886,-2072,410,3472,-6,7,1,
1305,7,10,2023,15,7,41,896,-2072,408,3477,-7,6,0,
1306,7,10,2023,15,7,41,906,-2071,403,3478,-1,1,-2,
1307,7,10,2023,15,7,41,916,-2070,419,3477,-3,7,-1,
1308,7,10,2023,15,7,41,926,-2068,418,3479,-6,8,3,
1309,7,10,2023,15,7,41,936,-2062,421,3473,-8,9,-3,
1310,7,10,2023,15,7,41,946,-2063,420,3469,-10,13,-6,
1311,7,10,2023,15,7,41,956,-2066,408,3475,-8,7,-7,
1312,7,10,2023,15,7,41,966,-2068,397,3488,-6,9,-7,
1313,7,10,2023,15,7,41,976,-2077,403,3481,-5,12,-3,
1314,7,10,2023,15,7,41,986,-2070,403,3477,-3,11,-3,
1315,7,10,2023,15,7,41,996,-2076,402,3479,1,10,-1,
1316,7,10,2023,15,7,42,6,-2074,407,3473,7,8,5,
1317,7,10,2023,15,7,42,16,-2073,416,3468,7,6,7,
1318,7,10,2023,15,7,42,26,-2081,416,3477,6,8,7,
1319,7,10,2023,15,7,42,36,-2082,412,3476,0,9,7,
1320,7,10,2023,15,7,42,46,-2081,417,3481,-6,7,2,
1321,7,10,2023,15,7,42,56,-2079,415,3475,-5,1,2,
1322,7,10,2023,15,7,42,66,-2070,417,3477,-6,-1,0,
1323,7,10,2023,15,7,42,76,-2081,420,3478,-8,1,-5,
1324,7,10,2023,15,7,42,86,-2074,412,3483,-14,-2,-4,
1325,7,10,2023,15,7,42,96,-2069,409,3483,-15,-6,-5,
1326,7,10,2023,15,7,42,106,-2073,408,3475,-14,-7,-3,
1327,7,10,2023,15,7,42,116,-2066,398,3474,-9,-3,-4,
1328,7,10,2023,15,7,42,126,-2066,407,3477,-7,3,-1,
1329,7,10,2023,15,7,42,136,-2078,407,3479,-9,7,-1,
1330,7,10,2023,15,7,42,146,-2075,414,3479,-13,1,-4,
1331,7,10,2023,15,7,42,156,-2080,413,3481,-12,-2,0,
1332,7,10,2023,15,7,42,166,-2082,404,3467,-16,-6,-8,
1333,7,10,2023,15,7,42,176,-2077,402,3477,-18,-5,-6,
1334,7,10,2023,15,7,42,186,-2072,402,3481,-18,-10,-8,
1335,7,10,2023,15,7,42,196,-2074,400,3479,-23,-12,-12,
1336,7,10,2023,15,7,42,206,-2073,398,3482,-22,-12,-11,
1337,7,10,2023,15,7,42,216,-2068,397,3481,-18,-12,-7,
1338,7,10,2023,15,7,42,226,-2075,401,3471,-14,-16,-2,
1339,7,10,2023,15,7,42,236,-2074,399,3475,-12,-11,-4,
1340,7,10,2023,15,7,42,246,-2073,398,3481,-12,-11,2,
1341,7,10,2023,15,7,42,256,-2080,395,3479,-11,-9,4,
1342,7,10,2023,15,7,42,266,-2072,395,3480,-5,-8,3,
1343,7,10,2023,15,7,42,276,-2070,406,3475,-1,-11,5,
1344,7,10,2023,15,7,42,286,-2063,399,3485,2,-13,6,
1345,7,10,2023,15,7,42,296,-2070,401,3479,-2,-10,5,
1346,7,10,2023,15,7,42,306,-2057,411,3475,-2,-8,7,
1347,7,10,2023,15,7,42,316,-2058,408,3484,-3,-8,6,
1348,7,10,2023,15,7,42,326,-2067,405,3483,-9,-9,0,
1349,7,10,2023,15,7,42,336,-2070,391,3488,-10,-15,4,
1350,7,10,2023,15,7,42,346,-2076,396,3479,-8,-15,3,
1351,7,10,2023,15,7,42,356,-2074,400,3478,-6,-13,4,
1352,7,10,2023,15,7,42,366,-2075,395,3477,-7,-13,2,
1353,7,10,2023,15,7,42,376,-2056,410,3480,-2,-11,4,
1354,7,10,2023,15,7,42,386,-2066,408,3483,-8,-16,3,
1355,7,10,2023,15,7,42,396,-2079,385,3479,-9,-18,2,
1356,7,10,2023,15,7,42,406,-2065,406,3477,-4,-17,6,
1357,7,10,2023,15,7,42,416,-2072,399,3481,-10,-18,6,
1358,7,10,2023,15,7,42,426,-2073,394,3483,-10,-17,2,
1359,7,10,2023,15,7,42,436,-2064,394,3479,-9,-17,4,
1360,7,10,2023,15,7,42,446,-2073,394,3487,-8,-15,6,
1361,7,10,2023,15,7,42,466,-2066,396,3478,-9,-23,8,
1362,7,10,2023,15,7,42,476,-2066,389,3479,-7,-22,12,
1363,7,10,2023,15,7,42,486,-2056,397,3485,-6,-23,12,
1364,7,10,2023,15,7,42,496,-2056,407,3479,-7,-22,9,
1365,7,10,2023,15,7,42,506,-2065,395,3474,-5,-27,8,
1366,7,10,2023,15,7,42,516,-2048,399,3486,-7,-23,8,
1367,7,10,2023,15,7,42,526,-2056,407,3480,-8,-20,4,
1368,7,10,2023,15,7,42,536,-2063,395,3482,-9,-25,2,
1369,7,10,2023,15,7,42,546,-2057,396,3482,-12,-27,4,
1370,7,10,2023,15,7,42,556,-2061,396,3485,-11,-19,3,
1371,7,10,2023,15,7,42,566,-2055,396,3487,-6,-16,6,
1372,7,10,2023,15,7,42,576,-2051,383,3490,-5,-12,5,
1373,7,10,2023,15,7,42,586,-2054,393,3491,3,-10,6,
1374,7,10,2023,15,7,42,596,-2058,395,3492,3,-5,9,
1375,7,10,2023,15,7,42,606,-2057,390,3492,5,-4,10,
1376,7,10,2023,15,7,42,616,-2059,388,3479,8,-2,14,
1377,7,10,2023,15,7,42,626,-2052,391,3485,7,1,16,
1378,7,10,2023,15,7,42,636,-2054,391,3496,4,0,14,
1379,7,10,2023,15,7,42,646,-2060,400,3487,3,5,10,
1380,7,10,2023,15,7,42,656,-2051,400,3487,5,3,6,
1381,7,10,2023,15,7,42,666,-2066,401,3484,3,2,7,
1382,7,10,2023,15,7,42,676,-2066,399,3482,3,1,9,
1383,7,10,2023,15,7,42,686,-2062,395,3488,1,1,7,
1384,7,10,2023,15,7,42,696,-2070,402,3483,0,-4,7,
1385,7,10,2023,15,7,42,706,-2064,396,3484,2,-12,8,
1386,7,10,2023,15,7,42,716,-2057,393,3485,1,-14,6,
1387,7,10,2023,15,7,42,726,-2060,398,3485,1,-7,5,
1388,7,10,2023,15,7,42,736,-2057,393,3489,0,-7,8,
1389,7,10,2023,15,7,42,746,-2055,393,3487,3,-11,7,
1390,7,10,2023,15,7,42,756,-2059,397,3495,6,-5,6,
1391,7,10,2023,15,7,42,766,-2064,400,3486,5,-3,11,
1392,7,10,2023,15,7,42,776,-2054,393,3487,5,-6,13,
1393,7,10,2023,15,7,42,786,-2065,392,3478,4,-13,13,
1394,7,10,2023,15,7,42,796,-2047,405,3493,7,-11,16,
1395,7,10,2023,15,7,42,806,-2061,403,3484,8,-9,17,
1396,7,10,2023,15,7,42,816,-2057,397,3486,4,-6,16,
1397,7,10,2023,15,7,42,826,-2060,403,3495,2,-8,14,
1398,7,10,2023,15,7,42,836,-2055,408,3484,1,-9,12,
1399,7,10,2023,15,7,42,846,-2055,400,3490,-1,-14,12,
1400,7,10,2023,15,7,42,856,-2068,384,3487,2,-10,8,
1401,7,10,2023,15,7,42,866,-2062,405,3489,8,-12,13,
1402,7,10,2023,15,7,42,876,-2056,403,3483,4,-15,14,
1403,7,10,2023,15,7,42,886,-2044,393,3485,2,-11,11,
1404,7,10,2023,15,7,42,896,-2048,403,3483,5,-11,12,
1405,7,10,2023,15,7,42,906,-2057,386,3486,3,-13,11,
1406,7,10,2023,15,7,42,916,-2057,394,3493,5,-11,19,
1407,7,10,2023,15,7,42,926,-2064,395,3497,8,-14,17,
1408,7,10,2023,15,7,42,936,-2060,401,3492,5,-17,19,
1409,7,10,2023,15,7,42,946,-2042,399,3486,5,-20,18,
1410,7,10,2023,15,7,42,956,-2033,419,3488,5,-11,14,
1411,7,10,2023,15,7,42,966,-2053,410,3486,4,-9,9,
1412,7,10,2023,15,7,42,976,-2048,398,3492,3,-10,8,
1413,7,10,2023,15,7,42,986,-2059,396,3486,3,-10,8,
1414,7,10,2023,15,7,42,996,-2055,395,3483,5,-11,11,
1415,7,10,2023,15,7,43,6,-2053,393,3485,5,-8,12,
1416,7,10,2023,15,7,43,16,-2043,400,3487,3,-9,13,
1417,7,10,2023,15,7,43,26,-2047,405,3497,5,-8,15,
1418,7,10,2023,15,7,43,36,-2047,399,3500,9,-5,9,
1419,7,10,2023,15,7,43,46,-2052,400,3488,5,-1,10,
1420,7,10,2023,15,7,43,56,-2048,397,3495,4,-2,11,
1421,7,10,2023,15,7,43,66,-2057,398,3489,8,-4,14,
1422,7,10,2023,15,7,43,76,-2043,398,3502,8,0,16,
1423,7,10,2023,15,7,43,86,-2040,405,3497,12,3,14,
1424,7,10,2023,15,7,43,96,-2050,403,3489,9,0,13,
1425,7,10,2023,15,7,43,106,-2047,411,3486,5,1,8,
1426,7,10,2023,15,7,43,116,-2059,414,3486,3,7,8,
1427,7,10,2023,15,7,43,126,-2055,406,3493,-1,5,6,
1428,7,10,2023,15,7,43,136,-2049,401,3492,2,6,5,
1429,7,10,2023,15,7,43,146,-2058,400,3488,7,8,4,
1430,7,10,2023,15,7,43,156,-2049,407,3495,6,4,11,
1431,7,10,2023,15,7,43,166,-2048,412,3501,5,3,10,
1432,7,10,2023,15,7,43,176,-2046,402,3498,4,2,8,
1433,7,10,2023,15,7,43,186,-2047,394,3495,4,7,5,
1434,7,10,2023,15,7,43,196,-2042,407,3495,6,9,9,
1435,7,10,2023,15,7,43,206,-2056,408,3488,2,8,5,
1436,7,10,2023,15,7,43,216,-2060,393,3481,7,8,3,
1437,7,10,2023,15,7,43,226,-2057,396,3485,9,7,8,
1438,7,10,2023,15,7,43,236,-2045,399,3494,3,7,9,
1439,7,10,2023,15,7,43,246,-2048,402,3490,6,5,8,
1440,7,10,2023,15,7,43,256,-2057,404,3489,7,8,8,
1441,7,10,2023,15,7,43,266,-2052,400,3491,5,9,8,
1442,7,10,2023,15,7,43,276,-2056,400,3490,4,7,4,
1443,7,10,2023,15,7,43,286,-2057,401,3484,4,7,5,
1444,7,10,2023,15,7,43,296,-2058,393,3490,7,4,10,
1445,7,10,2023,15,7,43,306,-2056,403,3485,4,3,9,
1446,7,10,2023,15,7,43,326,-2039,404,3485,3,1,8,
1447,7,10,2023,15,7,43,336,-2046,404,3491,3,4,8,
1448,7,10,2023,15,7,43,346,-2049,405,3486,6,2,9,
1449,7,10,2023,15,7,43,356,-2049,405,3482,8,3,10,
1450,7,10,2023,15,7,43,366,-2049,409,3489,6,1,11,
1451,7,10,2023,15,7,43,376,-2054,407,3490,3,3,7,
1452,7,10,2023,15,7,43,386,-2061,405,3488,3,1,7,
1453,7,10,2023,15,7,43,396,-2055,409,3487,5,-3,12,
1454,7,10,2023,15,7,43,406,-2049,403,3480,1,1,9,
1455,7,10,2023,15,7,43,416,-2047,398,3490,2,1,8,
1456,7,10,2023,15,7,43,426,-2045,414,3493,5,1,8,
1457,7,10,2023,15,7,43,436,-2051,411,3494,-2,3,4,
1458,7,10,2023,15,7,43,446,-2051,394,3490,-4,1,2,
1459,7,10,2023,15,7,43,456,-2049,398,3484,1,1,6,
1460,7,10,2023,15,7,43,466,-2052,401,3493,4,1,7,
1461,7,10,2023,15,7,43,476,-2048,394,3493,5,2,7,
1462,7,10,2023,15,7,43,486,-2047,401,3496,8,3,6,
1463,7,10,2023,15,7,43,496,-2050,404,3487,6,6,3,
1464,7,10,2023,15,7,43,506,-2045,403,3483,5,7,4,
1465,7,10,2023,15,7,43,516,-2055,408,3487,6,10,8,
1466,7,10,2023,15,7,43,526,-2060,403,3503,5,10,8,
1467,7,10,2023,15,7,43,536,-2056,396,3486,8,6,9,
1468,7,10,2023,15,7,43,546,-2063,402,3477,6,6,6,
1469,7,10,2023,15,7,43,556,-2067,405,3484,7,0,10,
1470,7,10,2023,15,7,43,566,-2059,404,3488,5,-1,6,
1471,7,10,2023,15,7,43,576,-2057,406,3485,4,-6,10,
1472,7,10,2023,15,7,43,586,-2059,400,3488,4,-9,12,
1473,7,10,2023,15,7,43,596,-2048,400,3490,2,-8,11,
1474,7,10,2023,15,7,43,606,-2044,417,3493,0,-3,6,
1475,7,10,2023,15,7,43,616,-2053,411,3489,-2,-3,7,
1476,7,10,2023,15,7,43,626,-2050,395,3492,-1,-6,4,
1477,7,10,2023,15,7,43,636,-2048,406,3488,0,-3,1,
1478,7,10,2023,15,7,43,646,-2054,413,3492,-1,-4,5,
1479,7,10,2023,15,7,43,656,-2050,397,3502,-6,-6,4,
1480,7,10,2023,15,7,43,666,-2054,393,3499,-6,-6,4,
1481,7,10,2023,15,7,43,676,-2055,409,3489,-4,-7,8,
1482,7,10,2023,15,7,43,686,-2048,405,3487,-5,-7,10,
1483,7,10,2023,15,7,43,696,-2055,377,3493,-5,-16,11,
1484,7,10,2023,15,7,43,706,-2061,407,3488,5,-15,11,
1485,7,10,2023,15,7,43,716,-2053,409,3484,6,-13,18,
1486,7,10,2023,15,7,43,726,-2048,376,3498,3,-20,24,
1487,7,10,2023,15,7,43,736,-2064,372,3489,12,-23,35,
1488,7,10,2023,15,7,43,746,-2069,382,3495,26,-23,41,
1489,7,10,2023,15,7,43,756,-2061,395,3498,37,-25,49,
1490,7,10,2023,15,7,43,766,-2088,393,3491,39,-27,53,
1491,7,10,2023,15,7,43,776,-2092,394,3499,30,-42,53,
1492,7,10,2023,15,7,43,786,-2091,407,3484,28,-56,56,
1493,7,10,2023,15,7,43,796,-2031,439,3472,21,-69,60,
1494,7,10,2023,15,7,43,806,-1971,470,3486,12,-67,49,
1495,7,10,2023,15,7,43,816,-1972,485,3495,1,-54,32,
1496,7,10,2023,15,7,43,826,-2010,452,3499,-15,-36,9,
1497,7,10,2023,15,7,43,836,-2017,413,3511,-23,-32,-5,
1498,7,10,2023,15,7,43,846,-2028,397,3502,-21,-22,-7,
1499,7,10,2023,15,7,43,856,-2032,394,3501,-20,-11,-4,
1500,7,10,2023,15,7,43,866,-2036,383,3507,-12,-12,0,
1501,7,10,2023,15,7,43,876,-2040,386,3504,-5,-13,7,
1502,7,10,2023,15,7,43,886,-2039,410,3495,2,-8,9,
1503,7,10,2023,15,7,43,896,-2040,407,3504,-1,-6,8,
1504,7,10,2023,15,7,43,906,-2033,404,3499,3,-8,7,
1505,7,10,2023,15,7,43,916,-2029,422,3504,2,-6,6,
1506,7,10,2023,15,7,43,926,-2038,422,3506,1,1,5,
1507,7,10,2023,15,7,43,936,-2025,409,3501,2,3,3,
1508,7,10,2023,15,7,43,946,-2033,408,3495,1,5,-1,
1509,7,10,2023,15,7,43,956,-2032,404,3496,-5,7,-7,
1510,7,10,2023,15,7,43,966,-2033,410,3498,-6,10,-4,
1511,7,10,2023,15,7,43,976,-2045,406,3494,-6,12,-6,
1512,7,10,2023,15,7,43,986,-2044,396,3487,-5,7,-5,
1513,7,10,2023,15,7,43,996,-2036,410,3498,-1,7,0,
1514,7,10,2023,15,7,44,6,-2036,406,3504,-4,8,1,
1515,7,10,2023,15,7,44,16,-2043,406,3498,-7,6,-1,
1516,7,10,2023,15,7,44,26,-2038,401,3492,-7,7,0,
1517,7,10,2023,15,7,44,36,-2036,399,3499,-7,3,-1,
1518,7,10,2023,15,7,44,46,-2035,414,3500,-6,5,-1,
1519,7,10,2023,15,7,44,56,-2041,407,3495,-8,4,-1,
1520,7,10,2023,15,7,44,66,-2050,394,3495,-9,4,-3,
1521,7,10,2023,15,7,44,76,-2039,406,3498,-4,3,0,
1522,7,10,2023,15,7,44,86,-2043,407,3493,-5,2,1,
1523,7,10,2023,15,7,44,96,-2043,391,3490,-4,0,-2,
1524,7,10,2023,15,7,44,106,-2044,395,3494,-5,-1,1,
1525,7,10,2023,15,7,44,116,-2032,400,3496,-3,4,1,
1526,7,10,2023,15,7,44,126,-2028,407,3508,-7,8,-1,
1527,7,10,2023,15,7,44,136,-2038,432,3505,-7,5,-1,
1528,7,10,2023,15,7,44,146,-2045,421,3504,-16,3,-1,
1529,7,10,2023,15,7,44,156,-2040,384,3496,-19,-1,-7,
1530,7,10,2023,15,7,44,166,-2034,391,3491,-12,4,-2,
1531,7,10,2023,15,7,44,186,-2046,392,3490,-15,-2,-6,
1532,7,10,2023,15,7,44,196,-2045,388,3498,-12,-3,-3,
1533,7,10,2023,15,7,44,206,-2041,374,3495,-12,-6,1,
1534,7,10,2023,15,7,44,216,-2041,384,3489,-9,-4,3,
1535,7,10,2023,15,7,44,226,-2044,360,3483,-3,-6,7,
1536,7,10,2023,15,7,44,236,-2037,391,3490,1,-1,17,
1537,7,10,2023,15,7,44,246,-2044,415,3494,3,-2,13,
1538,7,10,2023,15,7,44,256,-2042,406,3500,-1,-9,10,
1539,7,10,2023,15,7,44,266,-2044,408,3494,-3,-12,13,
1540,7,10,2023,15,7,44,276,-2047,420,3493,5,-8,19,
1541,7,10,2023,15,7,44,286,-2041,405,3503,4,-10,20,
1542,7,10,2023,15,7,44,296,-2040,404,3491,1,-13,15,
1543,7,10,2023,15,7,44,306,-2024,408,3499,7,-11,16,
1544,7,10,2023,15,7,44,316,-2037,395,3490,1,-10,15,
1545,7,10,2023,15,7,44,326,-2047,368,3501,-3,-13,14,
1546,7,10,2023,15,7,44,336,-2036,390,3487,-7,-17,22,
1547,7,10,2023,15,7,44,346,-2049,415,3475,1,-14,20,
1548,7,10,2023,15,7,44,356,-2052,380,3499,-3,-25,17,
1549,7,10,2023,15,7,44,366,-2049,372,3497,2,-35,24,
1550,7,10,2023,15,7,44,376,-2048,407,3493,10,-42,30,
1551,7,10,2023,15,7,44,386,-2032,421,3500,9,-41,28,
1552,7,10,2023,15,7,44,396,-2031,432,3505,10,-45,27,
1553,7,10,2023,15,7,44,406,-2026,422,3513,3,-44,20,
1554,7,10,2023,15,7,44,416,-2020,401,3510,-5,-41,18,
1555,7,10,2023,15,7,44,426,-2032,398,3512,-5,-37,16,
1556,7,10,2023,15,7,44,436,-2030,402,3511,4,-34,21,
1557,7,10,2023,15,7,44,446,-2023,408,3517,8,-37,20,
1558,7,10,2023,15,7,44,456,-2029,396,3509,9,-33,20,
1559,7,10,2023,15,7,44,466,-2040,385,3515,10,-30,24,
1560,7,10,2023,15,7,44,476,-2049,371,3514,24,-31,32,
1561,7,10,2023,15,7,44,486,-2055,346,3524,39,-26,45,
1562,7,10,2023,15,7,44,496,-2059,353,3512,60,-34,62,
1563,7,10,2023,15,7,44,506,-2008,393,3503,75,-37,75,
1564,7,10,2023,15,7,44,516,-1946,490,3503,86,-27,78,
1565,7,10,2023,15,7,44,526,-1972,506,3501,73,-12,58,
1566,7,10,2023,15,7,44,536,-2009,454,3505,55,-11,31,
1567,7,10,2023,15,7,44,546,-2017,405,3529,54,-8,23,
1568,7,10,2023,15,7,44,556,-2052,416,3510,55,15,28,
1569,7,10,2023,15,7,44,566,-2063,414,3494,57,8,31,
1570,7,10,2023,15,7,44,576,-2065,397,3512,56,-11,36,
1571,7,10,2023,15,7,44,586,-2014,399,3490,57,-6,40,
1572,7,10,2023,15,7,44,596,-1958,453,3506,69,-20,46,
1573,7,10,2023,15,7,44,606,-1988,500,3531,66,6,35,
1574,7,10,2023,15,7,44,616,-2017,425,3484,49,37,11,
1575,7,10,2023,15,7,44,626,-1977,419,3524,59,4,18,
1576,7,10,2023,15,7,44,636,-1944,485,3544,72,21,23,
1577,7,10,2023,15,7,44,646,-1877,472,3486,58,91,-2,
1578,7,10,2023,15,7,44,656,-1844,491,3578,70,53,-22,
1579,7,10,2023,15,7,44,666,-1920,499,3590,62,154,-46,
1580,7,10,2023,15,7,44,676,-1953,480,3495,42,247,-64,
1581,7,10,2023,15,7,44,686,-1847,411,3624,44,161,-88,
1582,7,10,2023,15,7,44,696,-1857,544,3686,57,318,-83,
1583,7,10,2023,15,7,44,706,-1861,429,3618,19,461,-151,
1584,7,10,2023,15,7,44,716,-1783,374,3767,55,451,-182,
1585,7,10,2023,15,7,44,726,-1811,431,3814,89,664,-194,
1586,7,10,2023,15,7,44,736,-1518,390,4062,140,985,-235,
1587,7,10,2023,15,7,44,746,-846,83,4353,349,1600,-309,
1588,7,10,2023,15,7,44,756,-1003,1532,4289,570,2428,-272,
1589,7,10,2023,15,7,44,766,-1170,4,4128,39,3124,-539,
1590,7,10,2023,15,7,44,776,-1247,558,4109,503,3921,-652,
1591,7,10,2023,15,7,44,786,-1454,579,4416,583,4820,-881,
1592,7,10,2023,15,7,44,796,-1505,780,4765,739,5696,-1214,
1593,7,10,2023,15,7,44,806,-1540,1250,4470,874,6459,-1541,
1594,7,10,2023,15,7,44,816,-2909,1809,4735,819,7118,-1745,
1595,7,10,2023,15,7,44,826,-3229,1972,4906,551,7238,-2013,
1596,7,10,2023,15,7,44,836,-3673,1970,4812,265,7143,-2304,
1597,7,10,2023,15,7,44,846,-3761,1653,4521,19,6768,-2498,
1598,7,10,2023,15,7,44,856,-3477,1913,4365,-112,6449,-2570,
1599,7,10,2023,15,7,44,866,-3111,2933,5164,-280,6032,-2443,
1600,7,10,2023,15,7,44,876,-1467,4480,5893,-894,5021,-2000,
1601,7,10,2023,15,7,44,886,-1038,4420,5353,-2017,3714,-912,
1602,7,10,2023,15,7,44,896,-2652,2344,6473,-2433,2192,214,
1603,7,10,2023,15,7,44,906,469,1787,5022,-1578,441,1363,
1604,7,10,2023,15,7,44,916,1445,1448,3913,-299,-271,2422,
1605,7,10,2023,15,7,44,926,597,1158,4310,-26,-425,2454,
1606,7,10,2023,15,7,44,936,11,780,4720,134,-1049,2394,
1607,7,10,2023,15,7,44,946,-70,333,4729,280,-1955,2249,
1608,7,10,2023,15,7,44,956,64,-70,4440,469,-2814,2008,
1609,7,10,2023,15,7,44,966,-6,-219,4186,695,-3480,1690,
1610,7,10,2023,15,7,44,976,-254,-169,4005,892,-4003,1388,
1611,7,10,2023,15,7,44,986,-523,-17,3838,990,-4437,1177,
1612,7,10,2023,15,7,44,996,-735,117,3643,964,-4790,1097,
1613,7,10,2023,15,7,45,6,-894,161,3367,844,-5019,1125,
1614,7,10,2023,15,7,45,16,-916,118,2938,695,-5056,1196,
1615,7,10,2023,15,7,45,26,-773,84,2389,535,-4825,1224,
1616,7,10,2023,15,7,45,46,-805,-41,1667,247,-3367,978,
1617,7,10,2023,15,7,45,56,-1270,-364,1744,217,-2266,815,
1618,7,10,2023,15,7,45,66,-1961,-630,1909,463,-1181,801,
1619,7,10,2023,15,7,45,76,-2783,-495,1924,835,-271,958,
1620,7,10,2023,15,7,45,86,-3408,-303,1821,1095,385,1083,
1621,7,10,2023,15,7,45,96,-4044,-267,1681,1163,1037,1131,
1622,7,10,2023,15,7,45,106,-4975,-211,1491,1118,1599,1106,
1623,7,10,2023,15,7,45,116,-5699,-287,1292,996,1768,996,
1624,7,10,2023,15,7,45,126,-6161,-221,1125,856,1604,909,
1625,7,10,2023,15,7,45,136,-6287,-117,766,624,1327,781,
1626,7,10,2023,15,7,45,146,-6049,49,409,311,909,603,
1627,7,10,2023,15,7,45,156,-5322,91,1,-96,505,362,
1628,7,10,2023,15,7,45,166,-4547,91,-372,-456,424,143,
1629,7,10,2023,15,7,45,176,-4014,-15,-629,-656,627,25,
1630,7,10,2023,15,7,45,186,-3726,-55,-754,-649,1014,53,
1631,7,10,2023,15,7,45,196,-3666,86,-752,-463,1425,226,
1632,7,10,2023,15,7,45,206,-3840,261,-703,-219,1907,486,
1633,7,10,2023,15,7,45,216,-4299,437,-650,-7,2263,792,
1634,7,10,2023,15,7,45,226,-4716,331,-544,177,2350,1059,
1635,7,10,2023,15,7,45,236,-4951,-90,-543,428,2296,1307,
1636,7,10,2023,15,7,45,246,-4951,-363,-599,870,2044,1545,
1637,7,10,2023,15,7,45,256,-4647,-782,-785,1353,1840,1677,
1638,7,10,2023,15,7,45,266,-4349,-1030,-1111,1870,1898,1669,
1639,7,10,2023,15,7,45,276,-4319,-1060,-1312,2365,2101,1450,
1640,7,10,2023,15,7,45,286,-4380,-887,-1676,2672,2534,1032,
1641,7,10,2023,15,7,45,296,-4636,-814,-2076,2663,3014,511,
1642,7,10,2023,15,7,45,306,-4750,-511,-2390,2502,3396,73,
1643,7,10,2023,15,7,45,316,-5134,77,-2242,2154,3759,-280,
1644,7,10,2023,15,7,45,326,-5106,430,-2273,1514,4096,-532,
1645,7,10,2023,15,7,45,336,-4555,391,-2327,825,4260,-692,
1646,7,10,2023,15,7,45,346,-11369,14613,5066,424,4572,597,
1647,7,10,2023,15,7,45,356,-28866,20362,17940,-7583,-1258,4250,
1648,7,10,2023,15,7,45,366,-44,-21832,-5672,-18011,-12706,-683,
1649,7,10,2023,15,7,45,376,-806,2290,5760,-3,-15496,866,
1650,7,10,2023,15,7,45,386,265,13071,6435,1657,-11256,-589,
1651,7,10,2023,15,7,45,396,2323,-2063,6893,-6284,-9813,-3147,
1652,7,10,2023,15,7,45,406,-528,-4239,4298,-3704,-7408,-3032,
1653,7,10,2023,15,7,45,416,-3226,5369,4250,-1309,-5901,-1190,
1654,7,10,2023,15,7,45,426,1786,-4526,5736,-4633,-5330,-2978,
1655,7,10,2023,15,7,45,436,-826,-1750,4958,-1808,-2823,-1369,
1656,7,10,2023,15,7,45,446,-2114,-137,4272,-867,-1261,-507,
1657,7,10,2023,15,7,45,456,-1612,-733,4306,-601,-810,-404,
1658,7,10,2023,15,7,45,466,-2168,-583,3862,-99,-277,-47,
1659,7,10,2023,15,7,45,476,-2270,135,3487,287,-45,312,
1660,7,10,2023,15,7,45,486,-2404,385,3338,386,-31,463,
1661,7,10,2023,15,7,45,496,-2401,521,3319,394,-22,474,
1662,7,10,2023,15,7,45,506,-2394,886,3311,367,-103,496,
1663,7,10,2023,15,7,45,516,-2407,1075,3312,232,-228,396,
1664,7,10,2023,15,7,45,526,-2432,1155,3221,40,-301,243,
1665,7,10,2023,15,7,45,536,-2434,1109,3231,-177,-492,99,
1666,7,10,2023,15,7,45,546,-2311,1042,3321,-377,-646,-45,
1667,7,10,2023,15,7,45,556,-2209,1020,3391,-566,-715,-192,
1668,7,10,2023,15,7,45,566,-2121,708,3470,-716,-782,-340,
1669,7,10,2023,15,7,45,576,-1974,496,3590,-722,-789,-372,
1670,7,10,2023,15,7,45,586,-1829,386,3549,-652,-600,-340,
1671,7,10,2023,15,7,45,596,-1729,135,3648,-492,-449,-284,
1672,7,10,2023,15,7,45,606,-1773,161,3649,-266,-220,-157,
1673,7,10,2023,15,7,45,616,-1849,290,3564,-98,-37,-67,
1674,7,10,2023,15,7,45,626,-1974,364,3490,-4,56,-22,
1675,7,10,2023,15,7,45,636,-2060,513,3400,36,111,5,
1676,7,10,2023,15,7,45,646,-2045,601,3371,19,132,-18,
1677,7,10,2023,15,7,45,656,-2019,665,3433,-12,143,-64,
1678,7,10,2023,15,7,45,666,-2024,570,3450,-38,155,-114,
1679,7,10,2023,15,7,45,676,-2025,639,3453,-44,174,-133,
1680,7,10,2023,15,7,45,686,-2087,661,3415,-62,172,-167,
1681,7,10,2023,15,7,45,696,-2136,604,3392,-91,148,-218,
1682,7,10,2023,15,7,45,706,-2129,479,3395,-117,97,-237,
1683,7,10,2023,15,7,45,716,-2119,251,3444,-100,61,-231,
1684,7,10,2023,15,7,45,726,-2087,199,3491,-22,78,-151,
1685,7,10,2023,15,7,45,736,-2023,417,3505,64,129,-44,
1686,7,10,2023,15,7,45,746,-2008,600,3492,94,201,-30,
1687,7,10,2023,15,7,45,756,-2086,602,3469,77,238,-84,
1688,7,10,2023,15,7,45,766,-2178,601,3443,45,252,-127,
1689,7,10,2023,15,7,45,776,-2256,593,3408,-10,227,-164,
1690,7,10,2023,15,7,45,786,-2219,556,3359,-75,164,-200,
1691,7,10,2023,15,7,45,796,-2120,664,3272,-102,90,-217,
1692,7,10,2023,15,7,45,806,-1931,682,3255,-162,-3,-274,
1693,7,10,2023,15,7,45,816,-1949,644,3394,-199,-71,-348,
1694,7,10,2023,15,7,45,826,-1958,433,3400,-224,40,-397,
1695,7,10,2023,15,7,45,836,-2038,282,3409,-184,46,-459,
1696,7,10,2023,15,7,45,846,-1917,53,3506,-108,122,-433,
1697,7,10,2023,15,7,45,856,-1966,184,3563,-1,316,-316,
1698,7,10,2023,15,7,45,866,-2031,138,3590,13,417,-246,
1699,7,10,2023,15,7,45,876,-2142,-6,3531,38,476,-161,
1700,7,10,2023,15,7,45,886,-2111,232,3316,110,538,-12,
1701,7,10,2023,15,7,45,906,-2085,547,3359,133,518,-2,
1702,7,10,2023,15,7,45,916,-2047,644,3359,53,482,-86,
1703,7,10,2023,15,7,45,926,-1924,713,3360,12,466,-214,
1704,7,10,2023,15,7,45,936,-2177,562,3361,-21,453,-362,
1705,7,10,2023,15,7,45,946,-2316,361,3298,-59,382,-454,
1706,7,10,2023,15,7,45,956,-2303,354,3421,-35,297,-492,
1707,7,10,2023,15,7,45,966,-2146,509,3496,-14,262,-571,
1708,7,10,2023,15,7,45,976,-2251,474,3572,-52,322,-683,
1709,7,10,2023,15,7,45,986,-1969,511,3750,2,565,-822,
1710,7,10,2023,15,7,45,996,-1957,665,3939,48,1008,-966,
1711,7,10,2023,15,7,46,6,-1548,749,4092,25,1660,-1136,
1712,7,10,2023,15,7,46,16,-1713,776,3962,-36,2356,-1321,
1713,7,10,2023,15,7,46,26,-1932,592,3836,-119,3012,-1445,
1714,7,10,2023,15,7,46,36,-2158,369,3743,-146,3664,-1405,
1715,7,10,2023,15,7,46,46,-2223,-48,3773,-110,4294,-1257,
1716,7,10,2023,15,7,46,56,-1630,-279,4229,104,5157,-1088,
1717,7,10,2023,15,7,46,66,-1157,-27,4919,418,6492,-870,
1718,7,10,2023,15,7,46,76,-404,440,5278,547,8247,-635,
1719,7,10,2023,15,7,46,86,-375,911,5309,465,10349,-328,
1720,7,10,2023,15,7,46,96,-729,1083,5153,208,12453,-153,
1721,7,10,2023,15,7,46,106,-1471,985,4985,-250,14235,-247,
1722,7,10,2023,15,7,46,116,-3012,1058,4822,-660,15255,-594,
1723,7,10,2023,15,7,46,126,-5135,836,4919,-994,15438,-822,
1724,7,10,2023,15,7,46,136,-5503,555,4780,-1115,14588,-1026,
1725,7,10,2023,15,7,46,146,-6763,1453,4749,-894,13654,-1481,
1726,7,10,2023,15,7,46,156,-8537,2772,6026,-1086,12023,-2002,
1727,7,10,2023,15,7,46,166,-2651,3213,5556,-1897,9244,-1882,
1728,7,10,2023,15,7,46,176,4767,633,3837,-2723,7362,-1413,
1729,7,10,2023,15,7,46,186,5958,-593,1816,-2201,5025,-673,
1730,7,10,2023,15,7,46,196,-2309,-3847,7586,-2383,1866,-1744,
1731,7,10,2023,15,7,46,206,-3038,-1757,9940,24,-2389,-2217,
1732,7,10,2023,15,7,46,216,5103,1890,2891,2000,-6362,-1186,
1733,7,10,2023,15,7,46,226,5579,2518,1439,1953,-6831,-1428,
1734,7,10,2023,15,7,46,236,3578,2517,2133,1317,-6363,-1292,
1735,7,10,2023,15,7,46,246,2148,1611,2382,737,-6195,-964,
1736,7,10,2023,15,7,46,256,1117,894,2927,927,-6646,-439,
1737,7,10,2023,15,7,46,266,867,964,2940,1509,-7370,232,
1738,7,10,2023,15,7,46,276,1107,1238,2544,1917,-7848,872,
1739,7,10,2023,15,7,46,286,1050,1205,2172,1924,-7932,1378,
1740,7,10,2023,15,7,46,296,1043,986,1760,1691,-7743,1687,
1741,7,10,2023,15,7,46,306,1244,631,1443,1404,-7189,1778,
1742,7,10,2023,15,7,46,316,1378,294,1326,1186,-6206,1622,
1743,7,10,2023,15,7,46,326,1092,55,1661,1142,-4907,1314,
1744,7,10,2023,15,7,46,336,124,-108,2357,1322,-3459,1048,
1745,7,10,2023,15,7,46,346,-1395,-447,3016,1673,-2091,1021,
1746,7,10,2023,15,7,46,356,-3207,-682,3493,2279,-876,1335,
1747,7,10,2023,15,7,46,366,-5645,-573,3787,3024,118,1833,
1748,7,10,2023,15,7,46,376,-8430,-203,3976,3656,809,2271,
1749,7,10,2023,15,7,46,386,-11406,-348,3515,3990,1353,2570,
1750,7,10,2023,15,7,46,396,-13720,-612,2808,4253,720,2944,
1751,7,10,2023,15,7,46,406,-14543,-970,2408,4410,-817,3202,
1752,7,10,2023,15,7,46,416,-14793,-1485,1647,4475,-1856,3299,
1753,7,10,2023,15,7,46,426,-14089,-1847,-90,4491,-2944,3123,
1754,7,10,2023,15,7,46,436,-11588,-2054,-2334,4345,-4181,2565,
1755,7,10,2023,15,7,46,446,-8920,-2332,-4341,3975,-4225,1592,
1756,7,10,2023,15,7,46,456,-7370,-2019,-5944,3546,-3053,399,
1757,7,10,2023,15,7,46,466,-6977,-1130,-6608,3062,-1459,-697,
1758,7,10,2023,15,7,46,476,-7259,675,-6719,2555,8,-1149,
1759,7,10,2023,15,7,46,486,-7947,2212,-6165,1631,894,-672,
1760,7,10,2023,15,7,46,496,-8097,2317,-5983,15,1098,507,
1761,7,10,2023,15,7,46,506,-6268,1143,-6784,-1534,1157,1530,
1762,7,10,2023,15,7,46,516,-4183,-859,-6368,-2458,1507,1740,
1763,7,10,2023,15,7,46,526,-3845,-2032,-4953,-2456,3398,1382,
1764,7,10,2023,15,7,46,536,-4774,-1421,-3402,-1780,5417,915,
1765,7,10,2023,15,7,46,546,-17586,15907,9808,-1401,5903,1702,
1766,7,10,2023,15,7,46,556,-26802,7824,17706,-12807,-3079,-104,
1767,7,10,2023,15,7,46,566,9599,-21507,-7144,-15581,-14149,264,
1768,7,10,2023,15,7,46,576,-7751,951,7080,414,-10421,2136,
1769,7,10,2023,15,7,46,586,506,9738,2962,2525,-9894,627,
1770,7,10,2023,15,7,46,596,-429,5034,5229,-2076,-8455,-830,
1771,7,10,2023,15,7,46,606,1127,-6153,5087,-3123,-7372,-2457,
1772,7,10,2023,15,7,46,616,-2291,3771,4053,841,-5633,-564,
1773,7,10,2023,15,7,46,626,-3147,15,3362,-1562,-4974,-1356,
1774,7,10,2023,15,7,46,636,-1356,-1634,4092,-1406,-4883,-1126,
1775,7,10,2023,15,7,46,646,-1485,-212,4633,-577,-4020,-523,
1776,7,10,2023,15,7,46,656,-1622,212,4236,-652,-2837,-148,
1777,7,10,2023,15,7,46,666,-2390,369,3739,-656,-2049,67,
1778,7,10,2023,15,7,46,676,-2467,360,3736,-474,-1885,149,
1779,7,10,2023,15,7,46,686,-2480,606,3679,-388,-1675,245,
1780,7,10,2023,15,7,46,696,-2429,784,3558,-417,-1508,275,
1781,7,10,2023,15,7,46,706,-2194,956,3471,-480,-1492,216,
1782,7,10,2023,15,7,46,716,-1479,1314,3401,-588,-1451,71,
1783,7,10,2023,15,7,46,726,-1185,1660,3573,-732,-1279,-203,
1784,7,10,2023,15,7,46,736,-1427,1337,3517,-1048,-1090,-603,
1785,7,10,2023,15,7,46,746,-1550,782,3685,-1180,-1033,-831,
1786,7,10,2023,15,7,46,766,-2188,473,3470,-1286,-873,-874,
1787,7,10,2023,15,7,46,776,-2126,124,3528,-1248,-974,-894,
1788,7,10,2023,15,7,46,786,-1918,29,3656,-1127,-1025,-818,
1789,7,10,2023,15,7,46,796,-1745,-146,3705,-954,-927,-705,
1790,7,10,2023,15,7,46,806,-1686,-154,3759,-685,-700,-556,
1791,7,10,2023,15,7,46,816,-1770,16,3677,-509,-471,-410,
1792,7,10,2023,15,7,46,826,-1714,-110,3668,-391,-339,-330,
1793,7,10,2023,15,7,46,836,-1723,-99,3699,-221,-181,-239,
1794,7,10,2023,15,7,46,846,-1786,146,3687,-88,3,-122,
1795,7,10,2023,15,7,46,856,-1811,349,3638,-51,127,-87,
1796,7,10,2023,15,7,46,866,-1722,522,3698,-47,191,-115,
1797,7,10,2023,15,7,46,876,-1677,652,3556,-69,272,-161,
1798,7,10,2023,15,7,46,886,-1474,986,3494,-133,340,-251,
1799,7,10,2023,15,7,46,896,-1568,945,3513,-243,422,-426,
1800,7,10,2023,15,7,46,906,-1807,563,3457,-362,506,-617,
1801,7,10,2023,15,7,46,916,-1837,124,3492,-423,564,-704,
1802,7,10,2023,15,7,46,926,-1857,-190,3580,-393,665,-658,
1803,7,10,2023,15,7,46,936,-1889,-206,3623,-280,758,-542,
1804,7,10,2023,15,7,46,946,-1683,-29,3691,-169,887,-405,
1805,7,10,2023,15,7,46,956,-1749,110,3675,-102,1071,-322,
1806,7,10,2023,15,7,46,966,-1905,216,3553,-52,1165,-307,
1807,7,10,2023,15,7,46,976,-2257,42,3420,-9,1128,-357,
1808,7,10,2023,15,7,46,986,-2297,-82,3352,85,1060,-386,
1809,7,10,2023,15,7,46,996,-2118,-54,3295,159,998,-342,
1810,7,10,2023,15,7,47,6,-1746,362,3539,242,993,-327,
1811,7,10,2023,15,7,47,16,-1588,624,3789,230,1136,-429,
1812,7,10,2023,15,7,47,26,-1592,681,3855,149,1411,-615,
1813,7,10,2023,15,7,47,36,-1530,644,3835,67,1694,-834,
1814,7,10,2023,15,7,47,46,-1860,574,3643,-20,1902,-1019,
1815,7,10,2023,15,7,47,56,-2390,281,3406,-103,1949,-1205,
1816,7,10,2023,15,7,47,66,-2753,76,3261,-88,1882,-1359,
1817,7,10,2023,15,7,47,76,-2876,-38,3348,-27,1781,-1468,
1818,7,10,2023,15,7,47,86,-2405,57,3643,49,1873,-1474,
1819,7,10,2023,15,7,47,96,-2038,253,3847,79,2202,-1398,
1820,7,10,2023,15,7,47,106,-1956,301,4012,95,2715,-1332,
1821,7,10,2023,15,7,47,116,-1534,342,4196,155,3414,-1244,
1822,7,10,2023,15,7,47,126,-1344,605,4160,158,4204,-1104,
1823,7,10,2023,15,7,47,136,-1330,1164,4440,-113,4978,-1012,
1824,7,10,2023,15,7,47,146,-1366,1005,4737,-653,5936,-1027,
1825,7,10,2023,15,7,47,156,-1317,1153,5027,-1012,7199,-1124,
1826,7,10,2023,15,7,47,166,-762,1450,5672,-1435,8665,-1273,
1827,7,10,2023,15,7,47,176,-720,1516,5857,-2075,10252,-1484,
1828,7,10,2023,15,7,47,186,-987,1408,5353,-2717,11685,-1768,
1829,7,10,2023,15,7,47,196,-1155,1189,4704,-3100,12800,-2116,
1830,7,10,2023,15,7,47,206,-1306,739,3769,-3365,13507,-2452,
1831,7,10,2023,15,7,47,216,-337,-139,1771,-3521,13864,-2632,
1832,7,10,2023,15,7,47,226,280,-175,582,-3220,14116,-2529,
1833,7,10,2023,15,7,47,236,1234,711,264,-2982,14584,-2366,
1834,7,10,2023,15,7,47,246,1639,1293,2871,-3266,14786,-1999,
1835,7,10,2023,15,7,47,256,2366,2440,6736,-2584,12669,-251,
1836,7,10,2023,15,7,47,266,-7808,1655,12193,-1326,7672,1933,
1837,7,10,2023,15,7,47,276,-11463,1648,13502,128,-142,3442,
1838,7,10,2023,15,7,47,286,357,3402,7124,721,-7380,4354,
1839,7,10,2023,15,7,47,296,3888,2339,2783,-240,-9808,4270,
1840,7,10,2023,15,7,47,306,4083,744,1121,-982,-9431,4035,
1841,7,10,2023,15,7,47,316,2459,-1148,1009,-1070,-8175,3643,
1842,7,10,2023,15,7,47,326,526,-2505,1525,-134,-7490,3304,
1843,7,10,2023,15,7,47,336,-668,-1681,2222,1344,-7432,2997,
1844,7,10,2023,15,7,47,346,-1119,-835,2086,2091,-7714,2369,
1845,7,10,2023,15,7,47,356,-1147,-661,1704,2127,-7874,1682,
1846,7,10,2023,15,7,47,366,-1777,-922,1917,1842,-7724,1056,
1847,7,10,2023,15,7,47,376,-1690,-1610,1651,1721,-7525,459,
1848,7,10,2023,15,7,47,386,-314,-1914,749,1948,-6919,42,
1849,7,10,2023,15,7,47,396,683,-1715,926,2326,-5683,-342,
1850,7,10,2023,15,7,47,406,-784,-1812,1389,2820,-3447,-751,
1851,7,10,2023,15,7,47,416,-3793,-1794,2091,3682,-1412,-944,
1852,7,10,2023,15,7,47,426,-6929,-1221,2148,4618,117,-822,
1853,7,10,2023,15,7,47,436,-9302,-387,1698,5259,524,-523,
1854,7,10,2023,15,7,47,446,-10402,596,1643,5482,-165,-40,
1855,7,10,2023,15,7,47,456,-10776,1117,1461,5072,-542,485,
1856,7,10,2023,15,7,47,466,-10990,1151,1258,4411,-761,1117,
1857,7,10,2023,15,7,47,476,-10890,542,1174,3771,-1223,1787,
1858,7,10,2023,15,7,47,486,-10335,-3,149,3359,-1419,2526,
1859,7,10,2023,15,7,47,496,-9823,-431,-1251,2944,-1578,3197,
1860,7,10,2023,15,7,47,506,-8807,-682,-2468,2415,-1713,3620,
1861,7,10,2023,15,7,47,516,-7701,-798,-3462,1681,-1334,3705,
1862,7,10,2023,15,7,47,526,-7453,-1126,-4153,793,-467,3329,
1863,7,10,2023,15,7,47,536,-7052,-1248,-4731,75,193,2552,
1864,7,10,2023,15,7,47,546,-7128,-1142,-4331,-462,649,1526,
1865,7,10,2023,15,7,47,556,-7868,-1480,-4196,-798,1214,690,
1866,7,10,2023,15,7,47,566,-7271,-1938,-4987,-622,1208,250,
1867,7,10,2023,15,7,47,576,-5459,-2001,-5034,-4,765,162,
1868,7,10,2023,15,7,47,586,-4378,-1277,-4332,693,1711,116,
1869,7,10,2023,15,7,47,596,-4436,-142,-3895,1042,3482,-1,
1870,7,10,2023,15,7,47,606,-12619,11993,4137,851,4611,825,
1871,7,10,2023,15,7,47,626,2604,-14642,-5368,-12941,-10689,628,
1872,7,10,2023,15,7,47,636,-6216,-548,6175,-2508,-9689,2062,
1873,7,10,2023,15,7,47,646,-1809,5260,3375,1014,-9381,794,
1874,7,10,2023,15,7,47,656,-886,7755,5234,-998,-8615,-116,
1875,7,10,2023,15,7,47,666,1044,-4587,5060,-3766,-7381,-2016,
1876,7,10,2023,15,7,47,676,-1000,1366,4362,-255,-6010,-794,
1877,7,10,2023,15,7,47,686,-2247,-1074,3588,-1380,-4621,-1234,
1878,7,10,2023,15,7,47,696,-1918,-288,4064,-730,-4273,-786,
1879,7,10,2023,15,7,47,706,-1726,276,4075,-711,-3624,-344,
1880,7,10,2023,15,7,47,716,-1823,857,3946,-717,-2902,-232,
1881,7,10,2023,15,7,47,726,-1981,533,3806,-843,-2438,-299,
1882,7,10,2023,15,7,47,736,-1891,504,3748,-753,-2107,-256,
1883,7,10,2023,15,7,47,746,-1989,796,3622,-658,-1680,-185,
1884,7,10,2023,15,7,47,756,-1670,814,3780,-630,-1369,-266,
1885,7,10,2023,15,7,47,766,-1668,703,3836,-595,-1026,-372,
1886,7,10,2023,15,7,47,776,-1827,404,3765,-535,-745,-398,
1887,7,10,2023,15,7,47,786,-1893,429,3722,-366,-463,-324,
1888,7,10,2023,15,7,47,796,-2013,449,3631,-259,-210,-249,
1889,7,10,2023,15,7,47,806,-2112,310,3555,-176,-76,-194,
1890,7,10,2023,15,7,47,816,-2074,325,3554,-77,24,-131,
1891,7,10,2023,15,7,47,826,-2084,664,3513,-10,127,-45,
1892,7,10,2023,15,7,47,836,-2157,925,3443,-50,158,-75,
1893,7,10,2023,15,7,47,846,-2262,966,3390,-159,126,-198,
1894,7,10,2023,15,7,47,856,-2301,1006,3289,-290,33,-307,
1895,7,10,2023,15,7,47,866,-2162,890,3246,-431,-149,-441,
1896,7,10,2023,15,7,47,876,-1962,856,3336,-475,-204,-527,
1897,7,10,2023,15,7,47,886,-1952,617,3411,-475,-157,-613,
1898,7,10,2023,15,7,47,896,-1925,720,3493,-438,-53,-632,
1899,7,10,2023,15,7,47,906,-1889,600,3533,-456,37,-691,
1900,7,10,2023,15,7,47,916,-2034,468,3491,-449,142,-745,
1901,7,10,2023,15,7,47,926,-2111,234,3461,-431,233,-726,
1902,7,10,2023,15,7,47,936,-2095,12,3464,-314,336,-609,
1903,7,10,2023,15,7,47,946,-2056,224,3465,-191,464,-435,
1904,7,10,2023,15,7,47,956,-2175,3,3402,-212,528,-309,
1905,7,10,2023,15,7,47,966,-2199,-46,3355,-123,549,-176,
1906,7,10,2023,15,7,47,976,-2204,80,3276,-13,551,-13,
1907,7,10,2023,15,7,47,986,-2198,345,3285,81,545,96,
1908,7,10,2023,15,7,47,996,-2069,449,3368,129,553,117,
1909,7,10,2023,15,7,48,6,-1812,638,3552,163,640,111,
1910,7,10,2023,15,7,48,16,-1738,689,3597,128,824,59,
1911,7,10,2023,15,7,48,26,-2052,581,3507,67,1040,5,
1912,7,10,2023,15,7,48,36,-2266,426,3406,45,1138,-25,
1913,7,10,2023,15,7,48,46,-2446,260,3300,59,1172,-36,
1914,7,10,2023,15,7,48,56,-2307,246,3350,140,1191,-15,
1915,7,10,2023,15,7,48,66,-2111,303,3408,212,1246,17,
1916,7,10,2023,15,7,48,76,-2272,381,3292,266,1329,35,
1917,7,10,2023,15,7,48,86,-2347,505,3184,295,1393,37,
1918,7,10,2023,15,7,48,96,-2378,627,3118,284,1297,-9,
1919,7,10,2023,15,7,48,106,-2689,563,2900,199,1174,-106,
1920,7,10,2023,15,7,48,116,-2907,552,2824,208,929,-231,
1921,7,10,2023,15,7,48,126,-2605,588,3068,180,543,-323,
1922,7,10,2023,15,7,48,136,-2224,675,3305,139,495,-439,
1923,7,10,2023,15,7,48,146,-2089,820,3575,96,620,-564,
1924,7,10,2023,15,7,48,156,-2048,750,3814,41,995,-733,
1925,7,10,2023,15,7,48,166,-1649,871,4087,52,1614,-867,
1926,7,10,2023,15,7,48,176,-1521,850,4272,9,2350,-986,
1927,7,10,2023,15,7,48,186,-1653,702,4241,-42,3171,-1063,
1928,7,10,2023,15,7,48,196,-1965,548,4009,-75,3992,-1093,
1929,7,10,2023,15,7,48,206,-1951,611,4097,-58,4870,-1095,
1930,7,10,2023,15,7,48,216,-1580,583,4555,-95,5991,-1110,
1931,7,10,2023,15,7,48,226,-982,800,5080,-170,7555,-1118,
1932,7,10,2023,15,7,48,236,-613,1216,5599,-328,9409,-1167,
1933,7,10,2023,15,7,48,246,-868,1402,5729,-649,11176,-1257,
1934,7,10,2023,15,7,48,256,-2186,1607,5779,-959,12513,-1529,
1935,7,10,2023,15,7,48,266,-3125,1439,5450,-1277,13178,-1941,
1936,7,10,2023,15,7,48,276,-3717,1560,5245,-1313,13281,-2408,
1937,7,10,2023,15,7,48,286,-3049,2057,4398,-1585,12935,-2774,
1938,7,10,2023,15,7,48,296,688,1767,2547,-2105,12898,-3153,
1939,7,10,2023,15,7,48,306,2339,1776,297,-2361,13339,-3623,
1940,7,10,2023,15,7,48,316,-1221,1974,174,-2927,12739,-3457,
1941,7,10,2023,15,7,48,326,3300,-1178,5243,-3162,9826,-2531,
1942,7,10,2023,15,7,48,336,3419,-2514,8533,-867,5994,-962,
1943,7,10,2023,15,7,48,346,-7380,-518,11563,831,2183,-226,
1944,7,10,2023,15,7,48,356,-822,2918,8603,2014,-3445,997,
1945,7,10,2023,15,7,48,366,1835,3422,5499,1411,-7185,1258,
1946,7,10,2023,15,7,48,376,3025,2747,3200,-86,-8611,1100,
1947,7,10,2023,15,7,48,386,2914,1315,2150,-1181,-8683,972,
1948,7,10,2023,15,7,48,396,1597,121,2046,-1332,-8423,916,
1949,7,10,2023,15,7,48,406,262,-542,2131,-675,-8350,1024,
1950,7,10,2023,15,7,48,416,-391,-326,1942,351,-8523,1349,
1951,7,10,2023,15,7,48,426,-368,178,1354,1143,-8553,1597,
1952,7,10,2023,15,7,48,436,-886,489,1328,1465,-8098,1637,
1953,7,10,2023,15,7,48,446,-1045,421,1066,1357,-7410,1509,
1954,7,10,2023,15,7,48,456,-46,215,678,1205,-6421,1286,
1955,7,10,2023,15,7,48,466,207,-54,987,1242,-4749,1064,
1956,7,10,2023,15,7,48,486,-4103,-651,2684,2272,-940,1005,
1957,7,10,2023,15,7,48,496,-7074,-368,3269,3103,157,1380,
1958,7,10,2023,15,7,48,506,-9899,57,3091,3706,797,1835,
1959,7,10,2023,15,7,48,516,-12329,388,2551,3919,352,2238,
1960,7,10,2023,15,7,48,526,-13495,175,2164,3838,-916,2492,
1961,7,10,2023,15,7,48,536,-13621,-229,1318,3721,-1875,2683,
1962,7,10,2023,15,7,48,546,-13116,-466,201,3653,-2691,2798,
1963,7,10,2023,15,7,48,556,-11221,-698,-916,3568,-3628,2789,
1964,7,10,2023,15,7,48,566,-8766,-618,-2559,3366,-3641,2646,
1965,7,10,2023,15,7,48,576,-7162,-733,-3853,2914,-2888,2365,
1966,7,10,2023,15,7,48,586,-6294,-542,-4175,2435,-1783,2061,
1967,7,10,2023,15,7,48,596,-6634,-202,-4221,1841,-206,1757,
1968,7,10,2023,15,7,48,606,-7529,248,-4200,1158,936,1566,
1969,7,10,2023,15,7,48,616,-7145,213,-3281,-278,603,1445,
1970,7,10,2023,15,7,48,626,-6293,-835,-3720,-755,708,1443,
1971,7,10,2023,15,7,48,636,-4970,-1544,-3635,-569,536,1465,
1972,7,10,2023,15,7,48,646,-3966,-1847,-3026,7,1151,1316,
1973,7,10,2023,15,7,48,656,-4017,-1569,-2678,711,2561,981,
1974,7,10,2023,15,7,48,666,-4897,692,-1646,1305,3368,607,
1975,7,10,2023,15,7,48,676,-21745,17847,12938,-24,3334,1231,
1976,7,10,2023,15,7,48,686,-14519,1043,5302,-11011,-6142,-731,
1977,7,10,2023,15,7,48,696,-1055,-7717,-3110,-8784,-10588,573,
1978,7,10,2023,15,7,48,706,-6891,856,4879,-1756,-10192,390,
1979,7,10,2023,15,7,48,716,318,6058,5350,-521,-10354,-19,
1980,7,10,2023,15,7,48,726,2047,1736,6728,-2994,-8973,-986,
1981,7,10,2023,15,7,48,736,1030,-3274,5010,-2469,-7446,-1860,
1982,7,10,2023,15,7,48,746,-2896,1893,3280,-120,-5942,-1136,
1983,7,10,2023,15,7,48,756,-3516,-640,3235,-1142,-5508,-1143,
1984,7,10,2023,15,7,48,766,-750,-777,4616,-1028,-5446,-597,
1985,7,10,2023,15,7,48,776,-389,839,4860,-717,-4139,-196,
1986,7,10,2023,15,7,48,786,-2310,636,3774,-1004,-2867,-285,
1987,7,10,2023,15,7,48,796,-1861,545,3803,-885,-2686,-282,
1988,7,10,2023,15,7,48,806,-1242,670,4151,-682,-2253,-273,
1989,7,10,2023,15,7,48,816,-1921,372,3898,-682,-1497,-233,
1990,7,10,2023,15,7,48,826,-1843,108,3872,-547,-1146,-133,
1991,7,10,2023,15,7,48,836,-1736,158,3814,-318,-895,53,
1992,7,10,2023,15,7,48,846,-1650,422,3752,-108,-585,184,
1993,7,10,2023,15,7,48,856,-1717,657,3715,27,-359,240,
1994,7,10,2023,15,7,48,866,-1779,586,3676,113,-238,238,
1995,7,10,2023,15,7,48,876,-1802,858,3575,230,-54,231,
1996,7,10,2023,15,7,48,886,-1863,1167,3513,203,91,169,
1997,7,10,2023,15,7,48,896,-1999,1021,3401,49,145,13,
1998,7,10,2023,15,7,48,906,-2093,992,3362,-76,69,-91,
1999,7,10,2023,15,7,48,916,-2084,1002,3430,-219,-33,-191,
2000,7,10,2023,15,7,48,926,-2113,990,3405,-370,-71,-306,
2001,7,10,2023,15,7,48,936,-2124,747,3380,-484,-211,-415,
2002,7,10,2023,15,7,48,946,-2094,372,3490,-470,-359,-410,
2003,7,10,2023,15,7,48,956,-2058,644,3519,-365,-318,-275,
2004,7,10,2023,15,7,48,966,-2137,643,3450,-384,-298,-278,
2005,7,10,2023,15,7,48,976,-2041,442,3422,-360,-437,-274,
2006,7,10,2023,15,7,48,986,-1794,613,3498,-255,-472,-203,
2007,7,10,2023,15,7,48,996,-1716,680,3488,-248,-346,-184,
2008,7,10,2023,15,7,49,6,-1715,869,3385,-241,-231,-192,
2009,7,10,2023,15,7,49,16,-1798,667,3471,-307,-281,-284,
2010,7,10,2023,15,7,49,26,-1835,533,3481,-329,-220,-328,
2011,7,10,2023,15,7,49,36,-1915,551,3427,-358,-142,-328,
2012,7,10,2023,15,7,49,46,-1994,554,3423,-389,-165,-333,
2013,7,10,2023,15,7,49,56,-1942,499,3439,-389,-211,-346,
2014,7,10,2023,15,7,49,66,-1811,319,3556,-343,-227,-321,
2015,7,10,2023,15,7,49,76,-1691,444,3633,-253,-36,-241,
2016,7,10,2023,15,7,49,86,-1638,276,3650,-222,202,-207,
2017,7,10,2023,15,7,49,96,-1543,409,3760,-97,384,-120,
2018,7,10,2023,15,7,49,106,-1516,425,3747,13,633,-123,
2019,7,10,2023,15,7,49,116,-1832,287,3676,86,931,-133,
2020,7,10,2023,15,7,49,126,-1790,100,3613,153,1106,-99,
2021,7,10,2023,15,7,49,136,-1688,320,3727,288,1139,6,
2022,7,10,2023,15,7,49,146,-1970,393,3535,343,1450,29,
2023,7,10,2023,15,7,49,156,-1932,411,3458,415,1502,0,
2024,7,10,2023,15,7,49,166,-1769,578,3610,516,1485,-67,
2025,7,10,2023,15,7,49,176,-1770,637,3568,520,1688,-143,
2026,7,10,2023,15,7,49,186,-1807,841,3541,539,1825,-272,
2027,7,10,2023,15,7,49,196,-2167,809,3202,437,1999,-478,
2028,7,10,2023,15,7,49,206,-2352,820,3117,318,1804,-573,
2029,7,10,2023,15,7,49,216,-2820,728,3001,178,1517,-674,
2030,7,10,2023,15,7,49,226,-2845,717,3103,86,1243,-798,
2031,7,10,2023,15,7,49,236,-2255,857,3438,46,1083,-890,
2032,7,10,2023,15,7,49,246,-1981,917,3740,-46,1276,-987,
2033,7,10,2023,15,7,49,256,-1720,1031,4054,-149,1769,-1064,
2034,7,10,2023,15,7,49,266,-1722,1049,4215,-278,2556,-1114,
2035,7,10,2023,15,7,49,276,-1122,789,4561,-325,3577,-1192,
2036,7,10,2023,15,7,49,286,-789,622,4597,-279,4787,-1245,
2037,7,10,2023,15,7,49,296,-1300,356,4355,-204,6010,-1215,
2038,7,10,2023,15,7,49,306,-1398,255,4291,-107,7229,-1112,
2039,7,10,2023,15,7,49,316,-1718,779,4143,-118,8333,-948,
2040,7,10,2023,15,7,49,326,-1869,644,4256,-361,9521,-866,
2041,7,10,2023,15,7,49,346,-2051,1680,5109,-613,11916,-1222,
2042,7,10,2023,15,7,49,356,-3171,1645,5167,-1040,12663,-1651,
2043,7,10,2023,15,7,49,366,-4341,1338,5117,-1288,12692,-2094,
2044,7,10,2023,15,7,49,376,-4471,1442,4617,-1281,12194,-2448,
2045,7,10,2023,15,7,49,386,-4277,1948,4030,-1419,11483,-2707,
2046,7,10,2023,15,7,49,396,-2161,2214,2922,-2079,10697,-2934,
2047,7,10,2023,15,7,49,406,2933,1762,1294,-2939,10547,-3240,
2048,7,10,2023,15,7,49,416,2424,1172,-316,-3433,11460,-3475,
2049,7,10,2023,15,7,49,426,-987,902,931,-3718,11777,-3242,
2050,7,10,2023,15,7,49,436,1456,-1141,7479,-2997,9016,-2161,
2051,7,10,2023,15,7,49,446,725,-2344,9527,-570,4392,-518,
2052,7,10,2023,15,7,49,456,-9074,-678,12116,905,-152,52,
2053,7,10,2023,15,7,49,466,423,2442,7219,2173,-6366,1069,
2054,7,10,2023,15,7,49,476,4263,2120,3367,1621,-9250,991,
2055,7,10,2023,15,7,49,486,4412,1486,1696,506,-9201,738,
2056,7,10,2023,15,7,49,496,2963,449,1565,-109,-8266,580,
2057,7,10,2023,15,7,49,506,926,-201,2103,-76,-7629,550,
2058,7,10,2023,15,7,49,516,-361,-128,2703,450,-7700,805,
2059,7,10,2023,15,7,49,526,-851,260,2755,994,-8128,1224,
2060,7,10,2023,15,7,49,536,-537,33,1968,1318,-8228,1769,
2061,7,10,2023,15,7,49,546,-897,-403,1788,1279,-7663,1780,
2062,7,10,2023,15,7,49,556,585,-702,839,1245,-6802,1505,
2063,7,10,2023,15,7,49,566,1457,-829,699,1298,-4977,1064,
2064,7,10,2023,15,7,49,576,-388,-1215,1495,1653,-2438,717,
2065,7,10,2023,15,7,49,586,-3812,-1291,2363,2474,-252,767,
2066,7,10,2023,15,7,49,596,-7008,-413,3043,3433,1009,1253,
2067,7,10,2023,15,7,49,606,-9537,504,2981,3931,1656,1866,
2068,7,10,2023,15,7,49,616,-11790,1209,2478,3880,1304,2557,
2069,7,10,2023,15,7,49,626,-12712,1552,2104,3288,-52,3092,
2070,7,10,2023,15,7,49,636,-12803,1494,1573,2332,-956,3293,
2071,7,10,2023,15,7,49,646,-12535,730,551,1320,-1642,3190,
2072,7,10,2023,15,7,49,656,-11161,-205,-869,650,-2612,2969,
2073,7,10,2023,15,7,49,666,-9460,-1191,-2536,345,-2865,2738,
2074,7,10,2023,15,7,49,676,-7653,-1880,-4079,479,-2408,2592,
2075,7,10,2023,15,7,49,686,-6557,-2074,-4734,909,-1522,2490,
2076,7,10,2023,15,7,49,696,-6891,-1002,-5182,1399,106,2373,
2077,7,10,2023,15,7,49,706,-7811,1546,-5312,1295,972,2049,
2078,7,10,2023,15,7,49,716,-8023,1724,-4941,-72,546,1500,
2079,7,10,2023,15,7,49,726,-6754,245,-5719,-1261,124,1234,
2080,7,10,2023,15,7,49,736,-5130,-1940,-6483,-1444,22,1174,
2081,7,10,2023,15,7,49,746,-3741,-3571,-6320,-426,895,1073,
2082,7,10,2023,15,7,49,756,-3817,-3173,-5584,1377,2785,834,
2083,7,10,2023,15,7,49,766,-12459,7138,770,2588,4577,1047,
2084,7,10,2023,15,7,49,776,-26755,14414,15961,-2801,-1012,1548,
2085,7,10,2023,15,7,49,786,-4879,-10690,-4960,-8509,-11333,1303,
2086,7,10,2023,15,7,49,796,-8365,3635,1518,-861,-12495,2494,
2087,7,10,2023,15,7,49,806,377,5530,5881,-1335,-12886,711,
2088,7,10,2023,15,7,49,816,3842,1971,8667,-2978,-10907,356,
2089,7,10,2023,15,7,49,826,3141,-382,5423,-1847,-9203,-1319,
2090,7,10,2023,15,7,49,836,-4160,1342,2724,141,-6648,-1670,
2091,7,10,2023,15,7,49,846,-5241,664,2944,-1273,-6429,-1091,
2092,7,10,2023,15,7,49,856,2118,1178,5938,-1928,-6981,-782,
2093,7,10,2023,15,7,49,866,-461,1263,4752,-1947,-4185,-1292,
2094,7,10,2023,15,7,49,876,-3225,120,3541,-2491,-3187,-1140,
2095,7,10,2023,15,7,49,886,-489,-968,4644,-1945,-3265,-1022,
2096,7,10,2023,15,7,49,896,-1935,-204,4076,-1321,-1988,-608,
2097,7,10,2023,15,7,49,906,-1609,352,3989,-1009,-1559,-333,
2098,7,10,2023,15,7,49,916,-1415,905,3714,-930,-1283,-365,
2099,7,10,2023,15,7,49,926,-1352,1076,3672,-975,-1148,-541,
2100,7,10,2023,15,7,49,936,-1603,938,3609,-1068,-1024,-691,
2101,7,10,2023,15,7,49,946,-1874,738,3529,-1133,-925,-762,
2102,7,10,2023,15,7,49,956,-1999,424,3538,-1104,-887,-771,
2103,7,10,2023,15,7,49,966,-1949,43,3618,-918,-775,-688,
2104,7,10,2023,15,7,49,976,-1933,124,3642,-706,-583,-532,
2105,7,10,2023,15,7,49,986,-1871,-198,3691,-597,-449,-430,
2106,7,10,2023,15,7,49,996,-1687,-427,3825,-356,-287,-328,
2107,7,10,2023,15,7,50,6,-1683,-192,3847,-71,-12,-132,
2108,7,10,2023,15,7,50,16,-1816,199,3713,132,235,29,
2109,7,10,2023,15,7,50,26,-1883,456,3622,218,347,70,
2110,7,10,2023,15,7,50,36,-1924,586,3582,224,376,46,
2111,7,10,2023,15,7,50,46,-1972,689,3533,176,364,-4,
2112,7,10,2023,15,7,50,56,-2024,743,3480,86,309,-75,
2113,7,10,2023,15,7,50,66,-2027,666,3498,-6,216,-163,
2114,7,10,2023,15,7,50,76,-1999,595,3510,-78,132,-241,
2115,7,10,2023,15,7,50,86,-2018,487,3506,-147,72,-286,
2116,7,10,2023,15,7,50,96,-2037,360,3510,-180,28,-276,
2117,7,10,2023,15,7,50,106,-2115,395,3488,-180,-6,-218,
2118,7,10,2023,15,7,50,116,-2169,395,3471,-192,-76,-175,
2119,7,10,2023,15,7,50,126,-2227,330,3433,-212,-181,-150,
2120,7,10,2023,15,7,50,136,-2080,380,3327,-215,-297,-111,
2121,7,10,2023,15,7,50,146,-1654,530,3416,-184,-346,-93,
2122,7,10,2023,15,7,50,156,-1564,672,3578,-163,-279,-120,
2123,7,10,2023,15,7,50,166,-1594,684,3521,-194,-185,-186,
2124,7,10,2023,15,7,50,176,-1537,633,3600,-219,-103,-267,
2125,7,10,2023,15,7,50,186,-1725,393,3610,-252,25,-329,
2126,7,10,2023,15,7,50,206,-1655,12,3704,-195,311,-361,
2127,7,10,2023,15,7,50,216,-1661,-90,3795,-89,535,-318,
2128,7,10,2023,15,7,50,226,-1409,-39,3917,42,816,-230,
2129,7,10,2023,15,7,50,236,-1394,42,3964,173,1186,-171,
2130,7,10,2023,15,7,50,246,-1315,316,4123,277,1588,-139,
2131,7,10,2023,15,7,50,256,-1257,387,3954,218,1993,-125,
2132,7,10,2023,15,7,50,266,-1988,184,3562,179,2289,-163,
2133,7,10,2023,15,7,50,276,-2163,316,3295,272,2369,-228,
2134,7,10,2023,15,7,50,286,-2238,219,3323,282,2338,-319,
2135,7,10,2023,15,7,50,296,-2163,340,3400,318,2355,-402,
2136,7,10,2023,15,7,50,306,-1973,623,3570,323,2478,-469,
2137,7,10,2023,15,7,50,316,-1863,892,3669,250,2692,-590,
2138,7,10,2023,15,7,50,326,-2033,1050,3469,114,2881,-758,
2139,7,10,2023,15,7,50,336,-2517,813,3233,-74,2975,-1015,
2140,7,10,2023,15,7,50,346,-2678,718,2983,-190,2923,-1248,
2141,7,10,2023,15,7,50,356,-3059,635,2738,-339,2713,-1418,
2142,7,10,2023,15,7,50,366,-3084,496,2929,-447,2428,-1545,
2143,7,10,2023,15,7,50,376,-2536,524,3654,-506,2478,-1606,
2144,7,10,2023,15,7,50,386,-1762,594,4217,-607,3333,-1613,
2145,7,10,2023,15,7,50,396,-1220,1053,4620,-750,4339,-1601,
2146,7,10,2023,15,7,50,406,-1427,915,4490,-1079,5330,-1621,
2147,7,10,2023,15,7,50,416,-1816,807,4412,-1361,6423,-1687,
2148,7,10,2023,15,7,50,426,-1796,1043,4515,-1628,7572,-1780,
2149,7,10,2023,15,7,50,436,-1599,1094,4796,-2000,8863,-1883,
2150,7,10,2023,15,7,50,446,-1908,1202,4968,-2296,9981,-2007,
2151,7,10,2023,15,7,50,456,-3379,920,4756,-3064,10914,-2378,
2152,7,10,2023,15,7,50,466,-3591,502,4449,-3104,10867,-2540,
2153,7,10,2023,15,7,50,476,-3195,497,3722,-3001,10549,-2533,
2154,7,10,2023,15,7,50,486,-1385,195,2372,-3012,10234,-2392,
2155,7,10,2023,15,7,50,496,1649,-134,445,-3133,10264,-2235,
2156,7,10,2023,15,7,50,506,1261,-150,-331,-3110,11078,-2078,
2157,7,10,2023,15,7,50,516,628,-203,1510,-3003,11591,-1867,
2158,7,10,2023,15,7,50,526,314,305,4911,-1967,10733,-930,
2159,7,10,2023,15,7,50,536,4708,3874,6081,-321,8161,891,
2160,7,10,2023,15,7,50,546,-5492,2491,9599,-500,5157,2667,
2161,7,10,2023,15,7,50,556,-6741,1480,10480,343,-381,4188,
2162,7,10,2023,15,7,50,566,-304,1815,6714,924,-5457,4880,
2163,7,10,2023,15,7,50,576,1362,1307,4263,610,-7932,4817,
2164,7,10,2023,15,7,50,586,2265,309,2632,-11,-8646,4325,
2165,7,10,2023,15,7,50,596,1914,-1192,2016,-339,-8259,3492,
2166,7,10,2023,15,7,50,606,907,-2599,2161,159,-7874,2535,
2167,7,10,2023,15,7,50,616,-145,-2082,2724,1291,-7785,1933,
2168,7,10,2023,15,7,50,626,-1064,-1277,3091,2029,-7976,1183,
2169,7,10,2023,15,7,50,636,-1466,-496,3139,2323,-8379,509,
2170,7,10,2023,15,7,50,646,-1561,-670,2912,2306,-8621,-121,
2171,7,10,2023,15,7,50,656,-1294,-1030,2294,2417,-8458,-504,
2172,7,10,2023,15,7,50,666,-552,-1051,1777,2649,-7645,-570,
2173,7,10,2023,15,7,50,676,-276,-863,1877,3019,-6113,-478,
2174,7,10,2023,15,7,50,686,-1026,-453,2495,3434,-4251,-303,
2175,7,10,2023,15,7,50,696,-2936,-105,3249,3767,-2496,-104,
2176,7,10,2023,15,7,50,706,-5830,-143,3872,4011,-1132,88,
2177,7,10,2023,15,7,50,716,-8519,-223,4185,4341,-434,502,
2178,7,10,2023,15,7,50,726,-10998,281,3914,4659,-76,1181,
2179,7,10,2023,15,7,50,736,-12849,737,2687,4582,-439,1791,
2180,7,10,2023,15,7,50,746,-13489,1541,2026,4233,-1864,2364,
2181,7,10,2023,15,7,50,756,-13233,2085,822,3365,-2707,2660,
2182,7,10,2023,15,7,50,766,-11753,2374,-1540,2082,-3139,2929,
2183,7,10,2023,15,7,50,776,-9267,1805,-3475,475,-3800,3174,
2184,7,10,2023,15,7,50,786,-6699,1071,-5119,-1014,-3162,3468,
2185,7,10,2023,15,7,50,796,-6223,-297,-6379,-2333,-1365,3562,
2186,7,10,2023,15,7,50,806,-6974,-1661,-6439,-2981,112,3382,
2187,7,10,2023,15,7,50,816,-7034,-2684,-5817,-2729,818,2897,
2188,7,10,2023,15,7,50,826,-8142,-3542,-4875,-1830,1559,2324,
2189,7,10,2023,15,7,50,836,-8453,-4014,-5334,-476,1784,1704,
2190,7,10,2023,15,7,50,846,-6239,-4505,-5648,1095,849,933,
2191,7,10,2023,15,7,50,856,-4058,-4433,-5093,2711,1134,113,
2192,7,10,2023,15,7,50,866,-4104,-3067,-4635,4034,3221,-757,
2193,7,10,2023,15,7,50,876,-4808,-582,-3676,4524,4538,-1524,
2194,7,10,2023,15,7,50,886,-16229,17927,9378,3610,4711,-771,
2195,7,10,2023,15,7,50,896,-25745,14373,16807,-8626,-4112,-12,
2196,7,10,2023,15,7,50,906,9529,-22126,-9941,-17231,-15560,-601,
2197,7,10,2023,15,7,50,916,-6982,-4431,5917,-1844,-12999,764,
2198,7,10,2023,15,7,50,926,28,8039,5027,2959,-11133,472,
2199,7,10,2023,15,7,50,936,3063,5708,6403,-1533,-9894,-481,
2200,7,10,2023,15,7,50,946,2313,-5363,5572,-2872,-7980,-2282,
2201,7,10,2023,15,7,50,956,-4395,4153,3594,754,-5810,-999,
2202,7,10,2023,15,7,50,966,-3425,-1815,3446,-2151,-5865,-1763,
2203,7,10,2023,15,7,50,976,387,-1498,5013,-1370,-5667,-1131,
2204,7,10,2023,15,7,50,986,-177,1293,5043,-775,-3787,-239,
2205,7,10,2023,15,7,50,996,-1842,-554,4139,-1170,-2371,-779,
2206,7,10,2023,15,7,51,6,-1710,-687,4273,-580,-1781,-441,
2207,7,10,2023,15,7,51,16,-1753,-48,4150,-306,-1179,-41,
2208,7,10,2023,15,7,51,26,-2025,207,3936,-233,-767,161,
2209,7,10,2023,15,7,51,36,-2243,201,3737,-123,-601,183,
2210,7,10,2023,15,7,51,46,-2114,421,3499,-40,-564,223,
2211,7,10,2023,15,7,51,66,-1868,1031,3473,-53,-493,197,
2212,7,10,2023,15,7,51,76,-1863,1014,3521,-199,-481,19,
2213,7,10,2023,15,7,51,86,-2005,706,3544,-333,-490,-146,
2214,7,10,2023,15,7,51,96,-2024,531,3536,-390,-506,-210,
2215,7,10,2023,15,7,51,106,-1978,544,3545,-434,-508,-225,
2216,7,10,2023,15,7,51,116,-1965,464,3560,-486,-515,-264,
2217,7,10,2023,15,7,51,126,-1839,294,3626,-515,-534,-318,
2218,7,10,2023,15,7,51,136,-1760,248,3696,-488,-508,-306,
2219,7,10,2023,15,7,51,146,-1771,194,3686,-429,-441,-261,
2220,7,10,2023,15,7,51,156,-1818,217,3652,-354,-380,-198,
2221,7,10,2023,15,7,51,166,-1870,242,3646,-313,-358,-149,
2222,7,10,2023,15,7,51,176,-1942,248,3613,-287,-368,-106,
2223,7,10,2023,15,7,51,186,-1996,223,3605,-260,-401,-63,
2224,7,10,2023,15,7,51,196,-1883,280,3497,-227,-430,-22,
2225,7,10,2023,15,7,51,206,-1611,541,3503,-196,-438,16,
2226,7,10,2023,15,7,51,216,-1485,688,3523,-219,-430,-14,
2227,7,10,2023,15,7,51,226,-1451,755,3519,-275,-383,-83,
2228,7,10,2023,15,7,51,236,-1517,526,3612,-309,-325,-158,
2229,7,10,2023,15,7,51,246,-1581,332,3644,-277,-215,-175,
2230,7,10,2023,15,7,51,256,-1621,294,3640,-203,-82,-153,
2231,7,10,2023,15,7,51,266,-1643,376,3626,-170,25,-143,
2232,7,10,2023,15,7,51,276,-1721,337,3596,-188,99,-163,
2233,7,10,2023,15,7,51,286,-1614,336,3599,-207,152,-190,
2234,7,10,2023,15,7,51,296,-1416,419,3614,-208,220,-218,
2235,7,10,2023,15,7,51,306,-1417,449,3653,-236,333,-262,
2236,7,10,2023,15,7,51,316,-1521,259,3690,-262,472,-327,
2237,7,10,2023,15,7,51,326,-1565,63,3762,-238,622,-370,
2238,7,10,2023,15,7,51,336,-1557,55,3767,-160,792,-365,
2239,7,10,2023,15,7,51,346,-1611,33,3760,-99,969,-335,
2240,7,10,2023,15,7,51,356,-1667,24,3785,-34,1171,-335,
2241,7,10,2023,15,7,51,366,-1488,165,3807,18,1356,-312,
2242,7,10,2023,15,7,51,376,-1912,-54,3662,-14,1513,-273,
