Packet #, Month, Day, Year, Hour, Minute, Second, MS, ACC X, ACC Y, ACC Z, GYR X, GYR Y, GYR Z
1,6,2,2023,12,6,58,343,0,0,0,0,0,0,
2,6,2,2023,12,6,58,353,0,0,0,0,0,0,
3,6,2,2023,12,6,58,363,0,0,0,0,0,0,
4,6,2,2023,12,6,58,373,0,0,0,0,0,0,
5,6,2,2023,12,6,58,383,0,0,0,0,0,0,
6,6,2,2023,12,6,58,393,0,0,0,0,0,0,
7,6,2,2023,12,6,58,403,-1183,1590,3581,-19,16,2,
8,6,2,2023,12,6,58,413,-1190,1578,3587,-26,15,-7,
9,6,2,2023,12,6,58,423,-1190,1583,3591,-11,4,-6,
10,6,2,2023,12,6,58,433,-1188,1582,3588,-12,3,-4,
11,6,2,2023,12,6,58,443,-1187,1577,3588,-8,5,-6,
12,6,2,2023,12,6,58,453,-1184,1584,3592,-8,5,-4,
13,6,2,2023,12,6,58,463,-1195,1582,3589,-8,4,0,
14,6,2,2023,12,6,58,473,-1189,1577,3595,-6,5,3,
15,6,2,2023,12,6,58,483,-1186,1578,3596,-5,5,2,
16,6,2,2023,12,6,58,493,-1189,1581,3594,-1,2,2,
17,6,2,2023,12,6,58,503,-1190,1589,3592,0,3,1,
18,6,2,2023,12,6,58,513,-1188,1581,3587,-1,3,0,
19,6,2,2023,12,6,58,523,-1188,1579,3590,1,5,3,
20,6,2,2023,12,6,58,533,-1186,1588,3588,1,6,1,
21,6,2,2023,12,6,58,543,-1184,1579,3589,2,8,-4,
22,6,2,2023,12,6,58,553,-1181,1581,3585,0,6,-4,
23,6,2,2023,12,6,58,563,-1191,1579,3586,0,7,-4,
24,6,2,2023,12,6,58,573,-1186,1582,3590,-1,4,-3,
25,6,2,2023,12,6,58,583,-1186,1585,3586,-1,5,-4,
26,6,2,2023,12,6,58,593,-1181,1580,3594,0,6,-5,
27,6,2,2023,12,6,58,603,-1187,1585,3590,2,9,-3,
28,6,2,2023,12,6,58,613,-1187,1583,3585,4,7,-6,
29,6,2,2023,12,6,58,623,-1191,1589,3585,3,8,0,
30,6,2,2023,12,6,58,633,-1189,1578,3588,0,6,-2,
31,6,2,2023,12,6,58,643,-1187,1582,3589,-1,5,-2,
32,6,2,2023,12,6,58,653,-1191,1590,3588,0,5,-6,
33,6,2,2023,12,6,58,663,-1187,1584,3586,-2,4,-3,
34,6,2,2023,12,6,58,673,-1185,1586,3590,-3,5,-2,
35,6,2,2023,12,6,58,683,-1194,1581,3592,-8,2,-4,
36,6,2,2023,12,6,58,693,-1196,1584,3595,-5,2,-3,
37,6,2,2023,12,6,58,703,-1191,1585,3591,-6,4,-2,
38,6,2,2023,12,6,58,713,-1189,1586,3592,0,3,-1,
39,6,2,2023,12,6,58,723,-1194,1587,3592,-1,4,-3,
40,6,2,2023,12,6,58,733,-1191,1582,3593,1,1,1,
41,6,2,2023,12,6,58,743,-1183,1578,3592,0,3,2,
42,6,2,2023,12,6,58,753,-1182,1583,3594,3,1,2,
43,6,2,2023,12,6,58,763,-1189,1586,3594,3,0,4,
44,6,2,2023,12,6,58,773,-1189,1582,3590,4,2,5,
45,6,2,2023,12,6,58,783,-1184,1584,3595,4,2,6,
46,6,2,2023,12,6,58,793,-1191,1587,3597,3,1,4,
47,6,2,2023,12,6,58,803,-1189,1584,3588,1,4,6,
48,6,2,2023,12,6,58,813,-1190,1586,3590,-1,2,8,
49,6,2,2023,12,6,58,823,-1189,1588,3592,0,-4,13,
50,6,2,2023,12,6,58,833,-1189,1580,3590,-4,-6,10,
51,6,2,2023,12,6,58,843,-1182,1581,3592,1,-5,8,
52,6,2,2023,12,6,58,853,-1186,1581,3593,3,-7,11,
53,6,2,2023,12,6,58,863,-1185,1584,3597,1,-4,9,
54,6,2,2023,12,6,58,873,-1187,1586,3588,4,-4,9,
55,6,2,2023,12,6,58,883,-1193,1583,3581,6,-3,10,
56,6,2,2023,12,6,58,893,-1187,1583,3595,6,-5,9,
57,6,2,2023,12,6,58,903,-1189,1585,3589,5,-6,10,
58,6,2,2023,12,6,58,913,-1188,1586,3594,5,-4,8,
59,6,2,2023,12,6,58,923,-1183,1588,3591,4,-1,7,
60,6,2,2023,12,6,58,933,-1189,1587,3591,9,1,6,
61,6,2,2023,12,6,58,943,-1188,1580,3594,10,-3,7,
62,6,2,2023,12,6,58,953,-1182,1583,3589,11,-2,7,
63,6,2,2023,12,6,58,963,-1183,1588,3587,10,0,9,
64,6,2,2023,12,6,58,973,-1179,1591,3595,11,-4,11,
65,6,2,2023,12,6,58,983,-1181,1589,3586,5,-3,5,
66,6,2,2023,12,6,58,993,-1183,1593,3587,4,-1,5,
67,6,2,2023,12,6,59,3,-1191,1593,3591,1,-1,6,
68,6,2,2023,12,6,59,13,-1187,1594,3590,2,-6,6,
69,6,2,2023,12,6,59,23,-1184,1587,3594,-1,-4,6,
70,6,2,2023,12,6,59,33,-1186,1582,3587,2,-3,6,
71,6,2,2023,12,6,59,43,-1183,1584,3589,1,-4,5,
72,6,2,2023,12,6,59,53,-1183,1587,3595,3,-1,9,
73,6,2,2023,12,6,59,63,-1187,1589,3588,3,-3,7,
74,6,2,2023,12,6,59,73,-1186,1583,3591,4,-3,4,
75,6,2,2023,12,6,59,83,-1181,1590,3585,3,1,6,
76,6,2,2023,12,6,59,93,-1178,1594,3592,6,0,8,
77,6,2,2023,12,6,59,103,-1186,1588,3593,4,0,6,
78,6,2,2023,12,6,59,113,-1176,1591,3588,1,-1,4,
79,6,2,2023,12,6,59,123,-1189,1589,3590,1,0,4,
80,6,2,2023,12,6,59,133,-1182,1588,3593,0,1,7,
81,6,2,2023,12,6,59,143,-1187,1585,3589,-1,-1,5,
82,6,2,2023,12,6,59,153,-1181,1588,3590,0,-1,6,
83,6,2,2023,12,6,59,163,-1184,1589,3593,0,-3,7,
84,6,2,2023,12,6,59,173,-1187,1579,3589,3,-2,5,
85,6,2,2023,12,6,59,183,-1184,1586,3585,6,-1,6,
86,6,2,2023,12,6,59,203,-1182,1585,3583,9,-3,10,
87,6,2,2023,12,6,59,213,-1179,1586,3580,9,-5,9,
88,6,2,2023,12,6,59,223,-1180,1587,3582,6,-3,10,
89,6,2,2023,12,6,59,233,-1180,1593,3589,4,-3,9,
90,6,2,2023,12,6,59,243,-1185,1593,3586,1,-1,6,
91,6,2,2023,12,6,59,253,-1192,1587,3595,2,-3,7,
92,6,2,2023,12,6,59,263,-1178,1591,3596,2,-3,5,
93,6,2,2023,12,6,59,273,-1175,1593,3590,1,-2,1,
94,6,2,2023,12,6,59,283,-1176,1589,3588,0,0,7,
95,6,2,2023,12,6,59,293,-1179,1589,3589,3,2,6,
96,6,2,2023,12,6,59,303,-1183,1584,3593,2,3,4,
97,6,2,2023,12,6,59,313,-1185,1576,3591,3,3,1,
98,6,2,2023,12,6,59,323,-1177,1584,3586,7,1,4,
99,6,2,2023,12,6,59,333,-1180,1591,3593,13,3,3,
100,6,2,2023,12,6,59,343,-1183,1593,3586,9,3,4,
101,6,2,2023,12,6,59,353,-1185,1591,3587,7,-1,4,
102,6,2,2023,12,6,59,363,-1180,1594,3588,7,3,3,
103,6,2,2023,12,6,59,373,-1185,1594,3586,3,2,4,
104,6,2,2023,12,6,59,383,-1183,1591,3588,4,2,4,
105,6,2,2023,12,6,59,393,-1179,1591,3589,4,3,2,
106,6,2,2023,12,6,59,403,-1182,1588,3588,-2,4,1,
107,6,2,2023,12,6,59,413,-1177,1591,3587,-4,5,1,
108,6,2,2023,12,6,59,423,-1187,1587,3588,0,2,-2,
109,6,2,2023,12,6,59,433,-1183,1585,3600,-1,0,1,
110,6,2,2023,12,6,59,443,-1188,1587,3586,-2,6,1,
111,6,2,2023,12,6,59,453,-1176,1585,3588,0,4,-2,
112,6,2,2023,12,6,59,463,-1181,1592,3590,-1,5,-1,
113,6,2,2023,12,6,59,473,-1179,1592,3583,-7,6,-1,
114,6,2,2023,12,6,59,483,-1182,1589,3593,-8,9,-2,
115,6,2,2023,12,6,59,493,-1182,1593,3584,-6,10,-4,
116,6,2,2023,12,6,59,503,-1184,1583,3585,-8,6,-4,
117,6,2,2023,12,6,59,513,-1182,1592,3584,-5,5,-1,
118,6,2,2023,12,6,59,523,-1186,1593,3593,-7,9,-4,
119,6,2,2023,12,6,59,533,-1179,1585,3596,-5,4,-1,
120,6,2,2023,12,6,59,543,-1180,1586,3593,-6,3,-3,
121,6,2,2023,12,6,59,553,-1188,1592,3589,-13,8,-2,
122,6,2,2023,12,6,59,563,-1178,1588,3587,-9,8,-1,
123,6,2,2023,12,6,59,573,-1179,1585,3585,-8,5,0,
124,6,2,2023,12,6,59,583,-1178,1588,3594,-7,5,2,
125,6,2,2023,12,6,59,593,-1181,1584,3599,-9,2,1,
126,6,2,2023,12,6,59,603,-1187,1588,3594,-9,2,2,
127,6,2,2023,12,6,59,613,-1185,1587,3589,-6,1,2,
128,6,2,2023,12,6,59,623,-1183,1581,3594,-7,3,0,
129,6,2,2023,12,6,59,633,-1182,1579,3591,-4,4,-4,
130,6,2,2023,12,6,59,643,-1178,1588,3598,2,7,-1,
131,6,2,2023,12,6,59,653,-1179,1587,3585,5,7,2,
132,6,2,2023,12,6,59,663,-1178,1586,3598,8,4,-1,
133,6,2,2023,12,6,59,673,-1181,1589,3592,14,6,-1,
134,6,2,2023,12,6,59,683,-1186,1590,3588,10,5,-1,
135,6,2,2023,12,6,59,693,-1187,1580,3593,10,-1,3,
136,6,2,2023,12,6,59,703,-1190,1587,3596,10,-2,3,
137,6,2,2023,12,6,59,713,-1176,1602,3592,16,1,5,
138,6,2,2023,12,6,59,723,-1185,1588,3591,17,-1,6,
139,6,2,2023,12,6,59,733,-1183,1597,3592,17,-2,6,
140,6,2,2023,12,6,59,743,-1178,1595,3591,13,1,5,
141,6,2,2023,12,6,59,753,-1179,1591,3586,4,2,7,
142,6,2,2023,12,6,59,763,-1178,1588,3584,0,-2,5,
143,6,2,2023,12,6,59,773,-1181,1596,3588,-1,0,3,
144,6,2,2023,12,6,59,783,-1183,1591,3593,-4,2,6,
145,6,2,2023,12,6,59,793,-1180,1585,3585,-5,2,1,
146,6,2,2023,12,6,59,803,-1184,1588,3588,-7,4,-1,
147,6,2,2023,12,6,59,813,-1185,1590,3589,-6,6,-2,
148,6,2,2023,12,6,59,823,-1192,1588,3592,-3,5,-2,
149,6,2,2023,12,6,59,833,-1183,1591,3591,1,8,-1,
150,6,2,2023,12,6,59,843,-1180,1585,3594,4,8,1,
151,6,2,2023,12,6,59,853,-1180,1590,3589,0,7,-2,
152,6,2,2023,12,6,59,863,-1184,1592,3586,-2,9,-1,
153,6,2,2023,12,6,59,873,-1186,1592,3586,-3,9,-3,
154,6,2,2023,12,6,59,883,-1181,1592,3584,-13,8,-1,
155,6,2,2023,12,6,59,893,-1185,1584,3588,-11,8,-3,
156,6,2,2023,12,6,59,903,-1188,1583,3593,-14,9,-1,
157,6,2,2023,12,6,59,913,-1192,1590,3596,-13,2,1,
158,6,2,2023,12,6,59,923,-1198,1592,3601,-9,0,2,
159,6,2,2023,12,6,59,933,-1192,1587,3592,-5,1,4,
160,6,2,2023,12,6,59,943,-1181,1587,3584,-5,-3,4,
161,6,2,2023,12,6,59,953,-1177,1585,3585,-6,-2,5,
162,6,2,2023,12,6,59,963,-1183,1579,3601,-5,-3,7,
163,6,2,2023,12,6,59,973,-1177,1586,3575,-11,-2,4,
164,6,2,2023,12,6,59,983,-1190,1585,3598,-18,0,3,
165,6,2,2023,12,6,59,993,-1185,1584,3600,-8,-5,8,
166,6,2,2023,12,7,0,3,-1177,1591,3590,-6,-2,7,
167,6,2,2023,12,7,0,13,-1185,1590,3579,-2,1,9,
168,6,2,2023,12,7,0,23,-1181,1591,3589,-2,1,5,
169,6,2,2023,12,7,0,33,-1172,1585,3598,-7,2,4,
170,6,2,2023,12,7,0,43,-1187,1588,3586,-10,1,5,
171,6,2,2023,12,7,0,63,-1187,1583,3589,-13,7,5,
172,6,2,2023,12,7,0,73,-1184,1568,3604,-10,7,4,
173,6,2,2023,12,7,0,83,-1178,1578,3588,2,3,1,
174,6,2,2023,12,7,0,93,-1180,1579,3589,6,4,2,
175,6,2,2023,12,7,0,103,-1181,1584,3590,8,7,-1,
176,6,2,2023,12,7,0,113,-1185,1577,3590,15,6,1,
177,6,2,2023,12,7,0,123,-1175,1591,3587,16,5,2,
178,6,2,2023,12,7,0,133,-1185,1582,3585,12,6,4,
179,6,2,2023,12,7,0,143,-1187,1584,3584,17,7,0,
180,6,2,2023,12,7,0,153,-1189,1594,3590,21,8,0,
181,6,2,2023,12,7,0,163,-1191,1593,3584,19,5,4,
182,6,2,2023,12,7,0,173,-1174,1593,3589,18,3,6,
183,6,2,2023,12,7,0,183,-1181,1591,3587,16,11,2,
184,6,2,2023,12,7,0,193,-1180,1594,3581,15,12,-3,
185,6,2,2023,12,7,0,203,-1184,1592,3585,16,15,-3,
186,6,2,2023,12,7,0,213,-1186,1608,3579,17,16,-1,
187,6,2,2023,12,7,0,223,-1176,1615,3579,9,13,-6,
188,6,2,2023,12,7,0,233,-1179,1615,3583,-9,19,-11,
189,6,2,2023,12,7,0,243,-1189,1608,3586,-28,18,-16,
190,6,2,2023,12,7,0,253,-1178,1591,3596,-40,17,-18,
191,6,2,2023,12,7,0,263,-1190,1578,3588,-43,21,-15,
192,6,2,2023,12,7,0,273,-1186,1563,3594,-40,21,-14,
193,6,2,2023,12,7,0,283,-1198,1565,3602,-30,22,-11,
194,6,2,2023,12,7,0,293,-1188,1591,3585,-13,13,-10,
195,6,2,2023,12,7,0,303,-1191,1579,3592,-19,13,-8,
196,6,2,2023,12,7,0,313,-1182,1590,3593,-19,11,-8,
197,6,2,2023,12,7,0,323,-1187,1576,3593,-20,10,-6,
198,6,2,2023,12,7,0,333,-1191,1579,3584,-13,9,-6,
199,6,2,2023,12,7,0,343,-1196,1577,3602,-3,14,-4,
200,6,2,2023,12,7,0,353,-1187,1581,3597,8,6,-3,
201,6,2,2023,12,7,0,363,-1188,1586,3597,16,5,-1,
202,6,2,2023,12,7,0,373,-1185,1588,3592,18,10,-1,
203,6,2,2023,12,7,0,383,-1186,1588,3593,14,10,-5,
204,6,2,2023,12,7,0,393,-1194,1593,3591,12,10,-3,
205,6,2,2023,12,7,0,403,-1191,1586,3586,14,7,3,
206,6,2,2023,12,7,0,413,-1190,1588,3594,10,7,4,
207,6,2,2023,12,7,0,423,-1189,1589,3598,9,5,8,
208,6,2,2023,12,7,0,433,-1194,1592,3592,13,4,6,
209,6,2,2023,12,7,0,443,-1188,1590,3589,12,3,9,
210,6,2,2023,12,7,0,453,-1191,1591,3588,4,0,10,
211,6,2,2023,12,7,0,463,-1188,1596,3587,-1,-2,8,
212,6,2,2023,12,7,0,473,-1184,1595,3589,-1,1,10,
213,6,2,2023,12,7,0,483,-1187,1589,3589,-4,1,7,
214,6,2,2023,12,7,0,493,-1189,1585,3591,-7,4,4,
215,6,2,2023,12,7,0,503,-1185,1587,3593,-4,5,3,
216,6,2,2023,12,7,0,513,-1183,1580,3580,0,7,1,
217,6,2,2023,12,7,0,523,-1190,1590,3587,3,9,-1,
218,6,2,2023,12,7,0,533,-1186,1588,3592,9,7,0,
219,6,2,2023,12,7,0,543,-1193,1585,3592,7,9,-2,
220,6,2,2023,12,7,0,553,-1190,1597,3589,7,7,-2,
221,6,2,2023,12,7,0,563,-1190,1592,3589,7,5,0,
222,6,2,2023,12,7,0,573,-1190,1580,3599,6,6,1,
223,6,2,2023,12,7,0,583,-1187,1585,3595,12,8,2,
224,6,2,2023,12,7,0,593,-1187,1590,3593,15,7,3,
225,6,2,2023,12,7,0,603,-1190,1595,3588,11,7,6,
226,6,2,2023,12,7,0,613,-1199,1599,3588,6,4,7,
227,6,2,2023,12,7,0,623,-1188,1597,3592,5,0,3,
228,6,2,2023,12,7,0,633,-1197,1578,3598,-1,-2,3,
229,6,2,2023,12,7,0,643,-1192,1590,3586,2,-3,5,
230,6,2,2023,12,7,0,653,-1193,1587,3584,-1,-2,9,
231,6,2,2023,12,7,0,663,-1186,1593,3601,0,-8,9,
232,6,2,2023,12,7,0,673,-1191,1585,3591,-3,-10,11,
233,6,2,2023,12,7,0,683,-1182,1582,3586,6,-10,12,
234,6,2,2023,12,7,0,693,-1192,1590,3603,10,-8,15,
235,6,2,2023,12,7,0,703,-1191,1602,3588,8,-15,19,
236,6,2,2023,12,7,0,713,-1176,1581,3593,7,-15,20,
237,6,2,2023,12,7,0,723,-1177,1593,3596,11,-13,16,
238,6,2,2023,12,7,0,733,-1186,1599,3590,16,-9,15,
239,6,2,2023,12,7,0,743,-1184,1602,3584,21,-6,14,
240,6,2,2023,12,7,0,753,-1191,1590,3595,24,-3,12,
241,6,2,2023,12,7,0,763,-1189,1607,3582,22,-5,9,
242,6,2,2023,12,7,0,773,-1184,1591,3583,14,-5,9,
243,6,2,2023,12,7,0,783,-1183,1583,3602,16,-7,12,
244,6,2,2023,12,7,0,793,-1188,1595,3587,16,-5,15,
245,6,2,2023,12,7,0,803,-1185,1592,3588,10,-2,10,
246,6,2,2023,12,7,0,813,-1181,1588,3598,12,1,12,
247,6,2,2023,12,7,0,823,-1181,1597,3583,13,-5,10,
248,6,2,2023,12,7,0,833,-1186,1591,3582,15,-3,10,
249,6,2,2023,12,7,0,843,-1186,1595,3588,17,-3,12,
250,6,2,2023,12,7,0,853,-1185,1598,3588,13,-8,14,
251,6,2,2023,12,7,0,863,-1191,1589,3587,16,-7,11,
252,6,2,2023,12,7,0,873,-1187,1590,3582,22,-9,14,
253,6,2,2023,12,7,0,883,-1183,1603,3583,29,-10,16,
254,6,2,2023,12,7,0,893,-1182,1601,3581,23,-14,14,
255,6,2,2023,12,7,0,903,-1178,1601,3581,24,-11,14,
256,6,2,2023,12,7,0,923,-1183,1606,3581,23,-9,13,
257,6,2,2023,12,7,0,933,-1182,1602,3586,18,-5,11,
258,6,2,2023,12,7,0,943,-1181,1601,3582,22,-5,14,
259,6,2,2023,12,7,0,953,-1183,1604,3584,20,-7,14,
260,6,2,2023,12,7,0,963,-1180,1604,3576,12,-5,16,
261,6,2,2023,12,7,0,973,-1172,1606,3582,9,-4,17,
262,6,2,2023,12,7,0,983,-1183,1611,3575,4,-5,14,
263,6,2,2023,12,7,0,993,-1187,1606,3582,-5,-11,10,
264,6,2,2023,12,7,1,3,-1181,1609,3585,-8,-13,8,
265,6,2,2023,12,7,1,13,-1180,1610,3586,-13,-15,8,
266,6,2,2023,12,7,1,23,-1177,1616,3586,-16,-17,10,
267,6,2,2023,12,7,1,33,-1179,1603,3588,-26,-20,6,
268,6,2,2023,12,7,1,43,-1177,1609,3577,-34,-21,0,
269,6,2,2023,12,7,1,53,-1173,1588,3590,-40,-17,3,
270,6,2,2023,12,7,1,63,-1177,1597,3591,-32,-15,6,
271,6,2,2023,12,7,1,73,-1170,1596,3596,-29,-10,5,
272,6,2,2023,12,7,1,83,-1163,1585,3587,-32,-14,6,
273,6,2,2023,12,7,1,93,-1179,1576,3591,-31,-14,4,
274,6,2,2023,12,7,1,103,-1175,1583,3597,-18,-15,8,
275,6,2,2023,12,7,1,113,-1174,1595,3590,-11,-14,12,
276,6,2,2023,12,7,1,123,-1166,1602,3591,-11,-15,11,
277,6,2,2023,12,7,1,133,-1175,1606,3597,-20,-11,11,
278,6,2,2023,12,7,1,143,-1177,1621,3595,-9,-12,13,
279,6,2,2023,12,7,1,153,-1170,1608,3583,-20,-17,10,
280,6,2,2023,12,7,1,163,-1168,1608,3591,-18,-23,7,
281,6,2,2023,12,7,1,173,-1179,1586,3598,-20,-19,7,
282,6,2,2023,12,7,1,183,-1159,1618,3561,-19,-23,5,
283,6,2,2023,12,7,1,193,-1165,1568,3589,-38,-17,1,
284,6,2,2023,12,7,1,203,-1177,1575,3594,-24,-10,1,
285,6,2,2023,12,7,1,213,-1162,1609,3586,-4,-14,2,
286,6,2,2023,12,7,1,223,-1161,1589,3595,4,-3,-1,
287,6,2,2023,12,7,1,233,-1164,1578,3597,13,7,-4,
288,6,2,2023,12,7,1,243,-1159,1590,3595,17,15,-3,
289,6,2,2023,12,7,1,253,-1156,1592,3584,21,19,-5,
290,6,2,2023,12,7,1,263,-1175,1600,3589,11,24,-9,
291,6,2,2023,12,7,1,273,-1166,1607,3588,2,21,-7,
292,6,2,2023,12,7,1,283,-1175,1605,3587,-7,21,-10,
293,6,2,2023,12,7,1,293,-1181,1593,3585,-9,17,-7,
294,6,2,2023,12,7,1,303,-1172,1599,3590,-6,13,-8,
295,6,2,2023,12,7,1,313,-1176,1606,3586,-8,7,-7,
296,6,2,2023,12,7,1,323,-1181,1596,3590,-12,2,-6,
297,6,2,2023,12,7,1,333,-1169,1591,3592,-14,3,-3,
298,6,2,2023,12,7,1,343,-1172,1597,3592,-11,-2,-7,
299,6,2,2023,12,7,1,353,-1178,1589,3591,-13,-5,-4,
300,6,2,2023,12,7,1,363,-1167,1595,3588,-16,-7,-1,
301,6,2,2023,12,7,1,373,-1167,1594,3591,-17,-8,3,
302,6,2,2023,12,7,1,383,-1171,1588,3593,-22,-6,11,
303,6,2,2023,12,7,1,393,-1171,1581,3595,-25,-2,10,
304,6,2,2023,12,7,1,403,-1163,1586,3589,-21,1,8,
305,6,2,2023,12,7,1,413,-1173,1573,3593,-18,2,8,
306,6,2,2023,12,7,1,423,-1166,1587,3596,-17,5,7,
307,6,2,2023,12,7,1,433,-1179,1589,3596,-14,2,8,
308,6,2,2023,12,7,1,443,-1176,1599,3588,-12,-1,6,
309,6,2,2023,12,7,1,453,-1176,1604,3590,-17,1,3,
310,6,2,2023,12,7,1,463,-1179,1609,3586,-21,3,1,
311,6,2,2023,12,7,1,473,-1172,1610,3587,-23,2,-3,
312,6,2,2023,12,7,1,483,-1171,1582,3591,-24,5,-6,
313,6,2,2023,12,7,1,493,-1169,1578,3601,-18,8,-6,
314,6,2,2023,12,7,1,503,-1174,1574,3596,-9,10,-6,
315,6,2,2023,12,7,1,513,-1173,1596,3592,-7,9,-4,
316,6,2,2023,12,7,1,523,-1166,1616,3596,-15,10,1,
317,6,2,2023,12,7,1,533,-1170,1587,3602,-23,13,-1,
318,6,2,2023,12,7,1,543,-1169,1573,3594,-20,16,0,
319,6,2,2023,12,7,1,553,-1177,1575,3593,-18,15,0,
320,6,2,2023,12,7,1,563,-1173,1612,3588,-18,12,5,
321,6,2,2023,12,7,1,573,-1180,1606,3595,-27,6,5,
322,6,2,2023,12,7,1,583,-1185,1576,3595,-31,4,2,
323,6,2,2023,12,7,1,593,-1166,1588,3588,-29,-1,1,
324,6,2,2023,12,7,1,603,-1166,1596,3594,-30,-5,1,
325,6,2,2023,12,7,1,613,-1170,1589,3594,-32,-3,-4,
326,6,2,2023,12,7,1,623,-1178,1576,3598,-31,-1,-8,
327,6,2,2023,12,7,1,633,-1169,1586,3590,-24,0,-7,
328,6,2,2023,12,7,1,643,-1168,1580,3603,-24,5,-9,
329,6,2,2023,12,7,1,653,-1172,1570,3594,-17,6,-8,
330,6,2,2023,12,7,1,663,-1171,1572,3591,-14,10,-7,
331,6,2,2023,12,7,1,673,-1169,1571,3597,-13,11,-7,
332,6,2,2023,12,7,1,683,-1171,1584,3591,-8,12,-4,
333,6,2,2023,12,7,1,693,-1177,1578,3604,-13,17,-6,
334,6,2,2023,12,7,1,703,-1182,1576,3596,-5,15,-3,
335,6,2,2023,12,7,1,713,-1184,1584,3597,-3,10,-1,
336,6,2,2023,12,7,1,723,-1175,1594,3584,-2,5,3,
337,6,2,2023,12,7,1,733,-1186,1575,3599,-7,5,-1,
338,6,2,2023,12,7,1,743,-1186,1572,3595,-5,2,0,
339,6,2,2023,12,7,1,753,-1183,1579,3600,-2,-4,5,
340,6,2,2023,12,7,1,763,-1175,1582,3597,-1,-10,6,
341,6,2,2023,12,7,1,783,-1170,1579,3594,-1,-9,5,
342,6,2,2023,12,7,1,793,-1167,1578,3599,0,-9,5,
343,6,2,2023,12,7,1,803,-1168,1590,3592,4,-4,4,
344,6,2,2023,12,7,1,813,-1173,1572,3604,4,0,3,
345,6,2,2023,12,7,1,823,-1170,1589,3587,6,1,3,
346,6,2,2023,12,7,1,833,-1163,1588,3603,-4,3,0,
347,6,2,2023,12,7,1,843,-1165,1600,3578,-11,3,-3,
348,6,2,2023,12,7,1,853,-1170,1587,3594,-22,9,-7,
349,6,2,2023,12,7,1,863,-1172,1580,3592,-31,11,-5,
350,6,2,2023,12,7,1,873,-1173,1587,3599,-40,12,-6,
351,6,2,2023,12,7,1,883,-1175,1589,3601,-37,6,-8,
352,6,2,2023,12,7,1,893,-1167,1577,3601,-34,8,-8,
353,6,2,2023,12,7,1,903,-1169,1570,3595,-23,15,-8,
354,6,2,2023,12,7,1,913,-1174,1569,3595,-19,15,-9,
355,6,2,2023,12,7,1,923,-1170,1567,3602,-19,16,-6,
356,6,2,2023,12,7,1,933,-1171,1576,3603,-15,18,-6,
357,6,2,2023,12,7,1,943,-1176,1571,3600,-12,19,-3,
358,6,2,2023,12,7,1,953,-1180,1574,3605,-7,18,-5,
359,6,2,2023,12,7,1,963,-1168,1570,3596,-2,19,-3,
360,6,2,2023,12,7,1,973,-1174,1573,3596,2,18,-3,
361,6,2,2023,12,7,1,983,-1184,1578,3594,4,16,-6,
362,6,2,2023,12,7,1,993,-1183,1578,3594,10,13,-6,
363,6,2,2023,12,7,2,3,-1175,1570,3612,20,9,-3,
364,6,2,2023,12,7,2,13,-1178,1601,3593,24,10,-7,
365,6,2,2023,12,7,2,23,-1179,1588,3598,14,9,-7,
366,6,2,2023,12,7,2,33,-1179,1577,3597,13,6,-4,
367,6,2,2023,12,7,2,43,-1178,1576,3603,13,3,-7,
368,6,2,2023,12,7,2,53,-1183,1580,3594,8,1,-11,
369,6,2,2023,12,7,2,63,-1188,1566,3601,4,-2,-6,
370,6,2,2023,12,7,2,73,-1179,1570,3598,6,-2,-3,
371,6,2,2023,12,7,2,83,-1181,1570,3609,6,-6,-1,
372,6,2,2023,12,7,2,93,-1182,1575,3601,13,-3,-2,
373,6,2,2023,12,7,2,103,-1182,1583,3597,9,-2,0,
374,6,2,2023,12,7,2,113,-1177,1581,3596,9,-6,3,
375,6,2,2023,12,7,2,123,-1185,1582,3599,8,-2,1,
376,6,2,2023,12,7,2,133,-1181,1596,3596,12,0,0,
377,6,2,2023,12,7,2,143,-1177,1577,3597,11,0,0,
378,6,2,2023,12,7,2,153,-1181,1585,3586,8,2,-5,
379,6,2,2023,12,7,2,163,-1175,1583,3592,10,2,-4,
380,6,2,2023,12,7,2,173,-1174,1578,3598,11,8,-1,
381,6,2,2023,12,7,2,183,-1179,1582,3592,6,8,-1,
382,6,2,2023,12,7,2,193,-1177,1576,3585,11,7,-4,
383,6,2,2023,12,7,2,203,-1180,1571,3603,16,8,-7,
384,6,2,2023,12,7,2,213,-1174,1596,3591,13,9,-5,
385,6,2,2023,12,7,2,223,-1183,1575,3591,12,8,-5,
386,6,2,2023,12,7,2,233,-1167,1580,3590,9,11,-7,
387,6,2,2023,12,7,2,243,-1185,1570,3599,1,13,-7,
388,6,2,2023,12,7,2,253,-1179,1596,3588,4,9,-6,
389,6,2,2023,12,7,2,263,-1178,1588,3589,-8,9,-3,
390,6,2,2023,12,7,2,273,-1185,1578,3589,-9,7,2,
391,6,2,2023,12,7,2,283,-1181,1586,3599,-8,11,-2,
392,6,2,2023,12,7,2,293,-1176,1581,3602,-1,12,-6,
393,6,2,2023,12,7,2,303,-1177,1581,3603,0,9,-7,
394,6,2,2023,12,7,2,313,-1182,1580,3596,2,6,-6,
395,6,2,2023,12,7,2,323,-1184,1573,3590,5,8,-3,
396,6,2,2023,12,7,2,333,-1185,1578,3598,3,6,-2,
397,6,2,2023,12,7,2,343,-1174,1595,3594,5,0,-2,
398,6,2,2023,12,7,2,353,-1178,1583,3596,2,3,-5,
399,6,2,2023,12,7,2,363,-1177,1582,3590,-1,7,-9,
400,6,2,2023,12,7,2,373,-1176,1576,3599,1,8,-9,
401,6,2,2023,12,7,2,383,-1179,1584,3596,1,12,-8,
402,6,2,2023,12,7,2,393,-1182,1573,3592,1,12,-8,
403,6,2,2023,12,7,2,403,-1186,1581,3593,-4,11,-12,
404,6,2,2023,12,7,2,413,-1178,1585,3586,-7,11,-10,
405,6,2,2023,12,7,2,423,-1177,1580,3593,-7,13,-7,
406,6,2,2023,12,7,2,433,-1185,1577,3589,-7,16,-14,
407,6,2,2023,12,7,2,443,-1180,1578,3590,-7,18,-13,
408,6,2,2023,12,7,2,453,-1182,1569,3594,-14,19,-14,
409,6,2,2023,12,7,2,463,-1189,1577,3599,-13,19,-13,
410,6,2,2023,12,7,2,473,-1180,1589,3592,-7,17,-15,
411,6,2,2023,12,7,2,483,-1182,1572,3596,-16,15,-12,
412,6,2,2023,12,7,2,493,-1205,1541,3596,-24,7,-3,
413,6,2,2023,12,7,2,503,-1203,1611,3569,-25,-7,7,
414,6,2,2023,12,7,2,513,-1195,1590,3590,-36,-20,11,
415,6,2,2023,12,7,2,523,-1171,1561,3600,-21,-18,3,
416,6,2,2023,12,7,2,533,-1171,1588,3621,-13,-13,-4,
417,6,2,2023,12,7,2,543,-1176,1573,3597,-33,-24,-2,
418,6,2,2023,12,7,2,553,-1185,1577,3589,-14,-9,-6,
419,6,2,2023,12,7,2,563,-1180,1577,3595,-7,-5,-11,
420,6,2,2023,12,7,2,573,-1176,1569,3599,-4,3,-11,
421,6,2,2023,12,7,2,583,-1177,1580,3591,2,4,-13,
422,6,2,2023,12,7,2,593,-1173,1566,3601,-1,7,-9,
423,6,2,2023,12,7,2,603,-1177,1581,3609,2,17,-12,
424,6,2,2023,12,7,2,613,-1187,1575,3595,-6,11,-8,
425,6,2,2023,12,7,2,623,-1188,1576,3606,-9,10,-6,
426,6,2,2023,12,7,2,643,-1192,1573,3585,-21,-7,-10,
427,6,2,2023,12,7,2,653,-1196,1582,3585,-17,-2,-9,
428,6,2,2023,12,7,2,663,-1193,1575,3591,-21,-9,-3,
429,6,2,2023,12,7,2,673,-1190,1572,3601,-21,-11,-3,
430,6,2,2023,12,7,2,683,-1182,1577,3593,-25,-16,-5,
431,6,2,2023,12,7,2,693,-1185,1564,3591,-28,-9,-5,
432,6,2,2023,12,7,2,703,-1183,1555,3593,-21,-4,-6,
433,6,2,2023,12,7,2,713,-1182,1563,3599,-10,-2,-8,
434,6,2,2023,12,7,2,723,-1180,1566,3603,-9,-2,0,
435,6,2,2023,12,7,2,733,-1187,1553,3593,-4,-1,5,
436,6,2,2023,12,7,2,743,-1182,1571,3599,9,2,2,
437,6,2,2023,12,7,2,753,-1180,1567,3600,11,4,0,
438,6,2,2023,12,7,2,763,-1172,1574,3597,14,5,-1,
439,6,2,2023,12,7,2,773,-1177,1578,3594,11,11,-6,
440,6,2,2023,12,7,2,783,-1183,1577,3603,9,11,-5,
441,6,2,2023,12,7,2,793,-1187,1576,3596,7,13,-8,
442,6,2,2023,12,7,2,803,-1189,1588,3610,10,10,-12,
443,6,2,2023,12,7,2,813,-1184,1590,3607,-7,-2,-9,
444,6,2,2023,12,7,2,823,-1199,1618,3645,-29,-25,-5,
445,6,2,2023,12,7,2,833,-1159,1545,3544,-65,-51,-8,
446,6,2,2023,12,7,2,843,-1179,1573,3594,-36,-22,-12,
447,6,2,2023,12,7,2,853,-1178,1578,3607,-43,-23,-12,
448,6,2,2023,12,7,2,863,-1177,1569,3588,-47,-23,-12,
449,6,2,2023,12,7,2,873,-1188,1589,3616,-40,-16,-10,
450,6,2,2023,12,7,2,883,-1186,1574,3611,-58,-32,-6,
451,6,2,2023,12,7,2,893,-1176,1565,3613,-64,-46,0,
452,6,2,2023,12,7,2,903,-1183,1576,3603,-74,-52,2,
453,6,2,2023,12,7,2,913,-1180,1568,3598,-85,-58,1,
454,6,2,2023,12,7,2,923,-1172,1561,3595,-92,-69,2,
455,6,2,2023,12,7,2,933,-1176,1534,3611,-83,-63,3,
456,6,2,2023,12,7,2,943,-1162,1563,3600,-71,-71,3,
457,6,2,2023,12,7,2,953,-1163,1556,3610,-74,-65,2,
458,6,2,2023,12,7,2,963,-1170,1556,3607,-71,-55,-5,
459,6,2,2023,12,7,2,973,-1166,1544,3599,-74,-54,-2,
460,6,2,2023,12,7,2,983,-1175,1559,3602,-65,-40,-9,
461,6,2,2023,12,7,2,993,-1180,1542,3614,-62,-38,-12,
462,6,2,2023,12,7,3,3,-1166,1536,3599,-47,-40,-9,
463,6,2,2023,12,7,3,13,-1159,1535,3597,-35,-32,-8,
464,6,2,2023,12,7,3,23,-1169,1528,3609,-15,-14,-12,
465,6,2,2023,12,7,3,33,-1166,1540,3620,1,-6,-13,
466,6,2,2023,12,7,3,43,-1174,1532,3625,1,-12,-8,
467,6,2,2023,12,7,3,53,-1165,1544,3607,10,-11,-6,
468,6,2,2023,12,7,3,63,-1171,1541,3618,11,-10,-8,
469,6,2,2023,12,7,3,73,-1176,1553,3614,8,-22,-6,
470,6,2,2023,12,7,3,83,-1175,1529,3623,5,-18,-3,
471,6,2,2023,12,7,3,93,-1171,1525,3620,17,-17,-5,
472,6,2,2023,12,7,3,103,-1154,1562,3598,24,-17,-5,
473,6,2,2023,12,7,3,113,-1164,1538,3618,18,-11,-1,
474,6,2,2023,12,7,3,123,-1159,1573,3601,19,-8,-4,
475,6,2,2023,12,7,3,133,-1159,1545,3608,18,2,-9,
476,6,2,2023,12,7,3,143,-1163,1553,3602,18,6,-12,
477,6,2,2023,12,7,3,153,-1169,1544,3611,25,8,-11,
478,6,2,2023,12,7,3,163,-1164,1559,3608,23,7,-6,
479,6,2,2023,12,7,3,173,-1172,1549,3610,17,3,-2,
480,6,2,2023,12,7,3,183,-1161,1562,3615,6,1,-5,
481,6,2,2023,12,7,3,193,-1171,1560,3613,-3,5,-7,
482,6,2,2023,12,7,3,203,-1159,1560,3615,-3,0,-3,
483,6,2,2023,12,7,3,213,-1168,1551,3611,-1,3,-1,
484,6,2,2023,12,7,3,223,-1161,1561,3617,3,6,-5,
485,6,2,2023,12,7,3,233,-1169,1555,3618,5,7,-3,
486,6,2,2023,12,7,3,243,-1165,1556,3619,7,8,-4,
487,6,2,2023,12,7,3,253,-1167,1556,3617,4,8,-3,
488,6,2,2023,12,7,3,263,-1165,1554,3612,-1,7,-1,
489,6,2,2023,12,7,3,273,-1162,1548,3611,-4,4,-1,
490,6,2,2023,12,7,3,283,-1167,1553,3606,-8,1,-1,
491,6,2,2023,12,7,3,293,-1173,1558,3612,-8,2,0,
492,6,2,2023,12,7,3,303,-1170,1553,3611,-11,0,0,
493,6,2,2023,12,7,3,313,-1169,1555,3603,-13,-5,5,
494,6,2,2023,12,7,3,323,-1166,1548,3607,-14,-8,9,
495,6,2,2023,12,7,3,333,-1170,1543,3606,-13,-5,7,
496,6,2,2023,12,7,3,343,-1166,1545,3596,-10,-2,5,
497,6,2,2023,12,7,3,353,-1159,1550,3613,-2,8,5,
498,6,2,2023,12,7,3,363,-1174,1552,3620,0,11,6,
499,6,2,2023,12,7,3,373,-1169,1552,3604,-5,6,5,
500,6,2,2023,12,7,3,383,-1172,1548,3602,4,9,9,
501,6,2,2023,12,7,3,393,-1169,1547,3610,12,19,8,
502,6,2,2023,12,7,3,403,-1171,1553,3616,15,23,5,
503,6,2,2023,12,7,3,413,-1163,1567,3615,14,19,10,
504,6,2,2023,12,7,3,423,-1176,1549,3610,10,18,15,
505,6,2,2023,12,7,3,433,-1166,1551,3612,12,17,13,
506,6,2,2023,12,7,3,443,-1174,1554,3627,16,17,15,
507,6,2,2023,12,7,3,453,-1169,1559,3614,18,10,18,
508,6,2,2023,12,7,3,463,-1157,1560,3614,6,4,20,
509,6,2,2023,12,7,3,473,-1161,1564,3612,-3,5,15,
510,6,2,2023,12,7,3,483,-1164,1556,3614,-3,5,15,
511,6,2,2023,12,7,3,503,-1170,1548,3620,7,0,12,
512,6,2,2023,12,7,3,513,-1165,1558,3622,15,1,14,
513,6,2,2023,12,7,3,523,-1168,1555,3619,18,2,12,
514,6,2,2023,12,7,3,533,-1159,1549,3616,20,5,11,
515,6,2,2023,12,7,3,543,-1160,1556,3615,23,3,7,
516,6,2,2023,12,7,3,553,-1158,1554,3608,24,2,5,
517,6,2,2023,12,7,3,563,-1167,1556,3609,27,3,6,
518,6,2,2023,12,7,3,573,-1165,1552,3610,23,5,6,
519,6,2,2023,12,7,3,583,-1166,1558,3610,28,4,4,
520,6,2,2023,12,7,3,593,-1166,1557,3608,28,5,5,
521,6,2,2023,12,7,3,603,-1168,1560,3611,21,5,3,
522,6,2,2023,12,7,3,613,-1167,1572,3611,16,4,0,
523,6,2,2023,12,7,3,623,-1169,1572,3606,9,5,-4,
524,6,2,2023,12,7,3,633,-1169,1569,3606,7,3,-5,
525,6,2,2023,12,7,3,643,-1169,1562,3607,6,4,-7,
526,6,2,2023,12,7,3,653,-1172,1567,3606,8,3,-10,
527,6,2,2023,12,7,3,663,-1161,1559,3612,5,0,-1,
528,6,2,2023,12,7,3,673,-1163,1556,3606,5,1,2,
529,6,2,2023,12,7,3,683,-1166,1558,3610,4,2,-1,
530,6,2,2023,12,7,3,693,-1163,1559,3608,5,6,-2,
531,6,2,2023,12,7,3,703,-1168,1565,3612,4,9,-5,
532,6,2,2023,12,7,3,713,-1162,1567,3615,7,11,-6,
533,6,2,2023,12,7,3,723,-1170,1568,3610,10,14,-7,
534,6,2,2023,12,7,3,733,-1173,1566,3599,7,16,-7,
535,6,2,2023,12,7,3,743,-1172,1564,3604,-2,5,1,
536,6,2,2023,12,7,3,753,-1171,1555,3604,-9,4,1,
537,6,2,2023,12,7,3,763,-1178,1553,3615,-9,4,0,
538,6,2,2023,12,7,3,773,-1171,1559,3612,-4,2,3,
539,6,2,2023,12,7,3,783,-1171,1562,3607,1,1,3,
540,6,2,2023,12,7,3,793,-1168,1557,3607,4,-1,4,
541,6,2,2023,12,7,3,803,-1167,1558,3608,9,-4,6,
542,6,2,2023,12,7,3,813,-1166,1561,3616,14,-3,11,
543,6,2,2023,12,7,3,823,-1171,1566,3607,16,-1,6,
544,6,2,2023,12,7,3,833,-1166,1549,3610,18,-2,7,
545,6,2,2023,12,7,3,843,-1163,1571,3610,18,-4,7,
546,6,2,2023,12,7,3,853,-1172,1566,3605,13,-2,8,
547,6,2,2023,12,7,3,863,-1170,1566,3611,14,-2,9,
548,6,2,2023,12,7,3,873,-1166,1570,3611,10,-6,12,
549,6,2,2023,12,7,3,883,-1169,1570,3624,2,-9,14,
550,6,2,2023,12,7,3,893,-1163,1569,3595,-6,-20,16,
551,6,2,2023,12,7,3,903,-1167,1566,3600,-10,-15,12,
552,6,2,2023,12,7,3,913,-1165,1573,3605,-3,-9,9,
553,6,2,2023,12,7,3,923,-1165,1573,3611,-1,-6,5,
554,6,2,2023,12,7,3,933,-1157,1566,3606,12,4,-3,
555,6,2,2023,12,7,3,943,-1165,1563,3619,15,8,-5,
556,6,2,2023,12,7,3,953,-1166,1562,3612,14,3,-4,
557,6,2,2023,12,7,3,963,-1157,1559,3608,16,5,-8,
558,6,2,2023,12,7,3,973,-1163,1567,3605,21,9,-8,
559,6,2,2023,12,7,3,983,-1164,1560,3606,24,10,-7,
560,6,2,2023,12,7,3,993,-1164,1565,3606,20,13,0,
561,6,2,2023,12,7,4,3,-1167,1562,3604,14,9,2,
562,6,2,2023,12,7,4,13,-1167,1559,3605,8,6,3,
563,6,2,2023,12,7,4,23,-1168,1567,3603,6,2,3,
564,6,2,2023,12,7,4,33,-1176,1559,3604,-1,0,6,
565,6,2,2023,12,7,4,43,-1167,1564,3604,1,-6,10,
566,6,2,2023,12,7,4,53,-1176,1569,3609,-2,-10,12,
567,6,2,2023,12,7,4,63,-1172,1571,3610,-4,-13,16,
568,6,2,2023,12,7,4,73,-1165,1561,3612,-5,-15,16,
569,6,2,2023,12,7,4,83,-1157,1575,3603,-3,-14,15,
570,6,2,2023,12,7,4,93,-1161,1570,3606,-7,-11,14,
571,6,2,2023,12,7,4,103,-1167,1564,3604,-9,-12,12,
572,6,2,2023,12,7,4,113,-1161,1568,3600,-10,-12,8,
573,6,2,2023,12,7,4,123,-1156,1559,3607,-12,-10,11,
574,6,2,2023,12,7,4,133,-1157,1576,3605,-12,-8,9,
575,6,2,2023,12,7,4,143,-1167,1561,3605,-10,-2,8,
576,6,2,2023,12,7,4,153,-1163,1567,3606,-10,0,9,
577,6,2,2023,12,7,4,163,-1162,1574,3609,-10,-3,7,
578,6,2,2023,12,7,4,173,-1155,1567,3611,-10,0,3,
579,6,2,2023,12,7,4,183,-1158,1583,3609,-16,2,-2,
580,6,2,2023,12,7,4,193,-1161,1540,3609,-18,1,0,
581,6,2,2023,12,7,4,203,-1158,1550,3613,-4,1,6,
582,6,2,2023,12,7,4,213,-1158,1571,3607,-4,5,4,
583,6,2,2023,12,7,4,223,-1157,1568,3602,1,9,-1,
584,6,2,2023,12,7,4,233,-1160,1563,3607,3,12,-3,
585,6,2,2023,12,7,4,243,-1163,1556,3610,3,11,2,
586,6,2,2023,12,7,4,253,-1167,1560,3604,4,9,1,
587,6,2,2023,12,7,4,263,-1168,1573,3607,5,5,-2,
588,6,2,2023,12,7,4,273,-1165,1568,3609,0,4,-1,
589,6,2,2023,12,7,4,283,-1166,1577,3608,1,7,-1,
590,6,2,2023,12,7,4,293,-1166,1570,3604,-2,7,-3,
591,6,2,2023,12,7,4,303,-1164,1570,3602,-8,1,-2,
592,6,2,2023,12,7,4,313,-1159,1563,3607,-15,0,1,
593,6,2,2023,12,7,4,323,-1174,1559,3626,-14,2,-2,
594,6,2,2023,12,7,4,333,-1168,1564,3609,-3,-3,-2,
595,6,2,2023,12,7,4,343,-1160,1563,3604,-4,1,-2,
596,6,2,2023,12,7,4,363,-1164,1568,3615,0,4,-1,
597,6,2,2023,12,7,4,373,-1161,1560,3619,-1,7,-1,
598,6,2,2023,12,7,4,383,-1161,1558,3610,1,9,2,
599,6,2,2023,12,7,4,393,-1165,1558,3618,1,5,4,
600,6,2,2023,12,7,4,403,-1160,1564,3611,2,0,6,
601,6,2,2023,12,7,4,413,-1169,1571,3601,2,2,5,
602,6,2,2023,12,7,4,423,-1161,1571,3603,0,3,7,
603,6,2,2023,12,7,4,433,-1165,1551,3611,0,2,4,
604,6,2,2023,12,7,4,443,-1167,1570,3605,0,0,3,
605,6,2,2023,12,7,4,453,-1170,1571,3600,4,-1,6,
606,6,2,2023,12,7,4,463,-1158,1562,3615,1,-8,5,
607,6,2,2023,12,7,4,473,-1164,1564,3612,1,-11,7,
608,6,2,2023,12,7,4,483,-1157,1562,3601,-1,-9,8,
609,6,2,2023,12,7,4,493,-1159,1569,3606,-1,-10,7,
610,6,2,2023,12,7,4,503,-1161,1561,3612,1,-10,6,
611,6,2,2023,12,7,4,513,-1168,1568,3613,3,-6,12,
612,6,2,2023,12,7,4,523,-1159,1568,3607,-2,-6,11,
613,6,2,2023,12,7,4,533,-1160,1561,3611,-2,-7,10,
614,6,2,2023,12,7,4,543,-1161,1577,3606,0,-7,5,
615,6,2,2023,12,7,4,553,-1159,1551,3615,2,0,5,
616,6,2,2023,12,7,4,563,-1150,1572,3602,10,4,1,
617,6,2,2023,12,7,4,573,-1153,1569,3614,13,11,-2,
618,6,2,2023,12,7,4,583,-1157,1579,3617,22,13,-5,
619,6,2,2023,12,7,4,593,-1163,1559,3609,35,19,-5,
620,6,2,2023,12,7,4,603,-1163,1564,3617,39,24,-8,
621,6,2,2023,12,7,4,613,-1174,1569,3602,36,26,-8,
622,6,2,2023,12,7,4,623,-1175,1571,3604,31,23,-5,
623,6,2,2023,12,7,4,633,-1167,1584,3608,25,16,1,
624,6,2,2023,12,7,4,643,-1172,1579,3604,16,8,2,
625,6,2,2023,12,7,4,653,-1168,1585,3616,4,1,3,
626,6,2,2023,12,7,4,663,-1163,1577,3584,-15,-11,8,
627,6,2,2023,12,7,4,673,-1156,1564,3603,-17,-12,11,
628,6,2,2023,12,7,4,683,-1159,1569,3615,-19,-15,10,
629,6,2,2023,12,7,4,693,-1156,1575,3602,-25,-19,12,
630,6,2,2023,12,7,4,703,-1161,1568,3617,-30,-16,13,
631,6,2,2023,12,7,4,713,-1163,1572,3630,-29,-16,11,
632,6,2,2023,12,7,4,723,-1148,1608,3585,-36,-15,8,
633,6,2,2023,12,7,4,733,-1153,1540,3616,-47,-17,11,
634,6,2,2023,12,7,4,743,-1155,1558,3618,-38,-15,7,
635,6,2,2023,12,7,4,753,-1160,1569,3608,-35,-11,9,
636,6,2,2023,12,7,4,763,-1159,1566,3608,-30,-11,7,
637,6,2,2023,12,7,4,773,-1160,1546,3615,-26,-8,4,
638,6,2,2023,12,7,4,783,-1158,1564,3604,-18,-4,4,
639,6,2,2023,12,7,4,793,-1165,1558,3609,-9,-2,4,
640,6,2,2023,12,7,4,803,-1155,1562,3612,-6,-5,7,
641,6,2,2023,12,7,4,813,-1159,1561,3611,-4,-5,9,
642,6,2,2023,12,7,4,823,-1161,1559,3615,6,-2,9,
643,6,2,2023,12,7,4,833,-1160,1569,3609,14,-1,4,
644,6,2,2023,12,7,4,843,-1160,1563,3616,15,3,3,
645,6,2,2023,12,7,4,853,-1158,1561,3615,19,1,0,
646,6,2,2023,12,7,4,863,-1162,1560,3612,22,2,0,
647,6,2,2023,12,7,4,873,-1155,1559,3610,12,2,8,
648,6,2,2023,12,7,4,883,-1151,1565,3615,7,0,10,
649,6,2,2023,12,7,4,893,-1157,1567,3605,-5,-2,11,
650,6,2,2023,12,7,4,903,-1162,1540,3617,-7,-1,9,
651,6,2,2023,12,7,4,913,-1143,1575,3603,-8,1,11,
652,6,2,2023,12,7,4,923,-1160,1573,3597,-19,10,12,
653,6,2,2023,12,7,4,933,-1160,1548,3618,-17,3,12,
654,6,2,2023,12,7,4,943,-1156,1587,3607,-8,1,11,
655,6,2,2023,12,7,4,953,-1157,1572,3614,-8,6,4,
656,6,2,2023,12,7,4,963,-1149,1581,3596,-5,13,0,
657,6,2,2023,12,7,4,973,-1160,1564,3611,-1,18,0,
658,6,2,2023,12,7,4,983,-1167,1556,3611,9,21,-5,
659,6,2,2023,12,7,4,993,-1156,1591,3600,15,25,-5,
660,6,2,2023,12,7,5,3,-1173,1555,3626,8,18,0,
661,6,2,2023,12,7,5,13,-1158,1558,3605,0,1,3,
662,6,2,2023,12,7,5,23,-1157,1559,3631,2,0,9,
663,6,2,2023,12,7,5,33,-1141,1588,3603,0,3,9,
664,6,2,2023,12,7,5,43,-1163,1539,3618,1,11,9,
665,6,2,2023,12,7,5,53,-1151,1552,3615,27,11,4,
666,6,2,2023,12,7,5,63,-1159,1569,3612,36,17,6,
667,6,2,2023,12,7,5,73,-1164,1560,3613,42,21,7,
668,6,2,2023,12,7,5,83,-1163,1571,3606,43,19,11,
669,6,2,2023,12,7,5,93,-1161,1565,3604,38,15,15,
670,6,2,2023,12,7,5,103,-1165,1568,3609,26,8,14,
671,6,2,2023,12,7,5,113,-1168,1583,3600,14,4,13,
672,6,2,2023,12,7,5,123,-1158,1570,3608,5,1,17,
673,6,2,2023,12,7,5,133,-1155,1576,3604,9,-3,16,
674,6,2,2023,12,7,5,143,-1157,1564,3608,18,2,11,
675,6,2,2023,12,7,5,153,-1155,1567,3608,38,8,8,
676,6,2,2023,12,7,5,163,-1148,1566,3613,47,11,2,
677,6,2,2023,12,7,5,173,-1166,1553,3605,52,16,2,
678,6,2,2023,12,7,5,183,-1169,1565,3611,67,9,10,
679,6,2,2023,12,7,5,193,-1162,1572,3600,64,4,15,
680,6,2,2023,12,7,5,203,-1158,1570,3577,49,0,17,
681,6,2,2023,12,7,5,223,-1154,1586,3601,40,-8,25,
682,6,2,2023,12,7,5,233,-1164,1580,3601,39,-8,22,
683,6,2,2023,12,7,5,243,-1147,1572,3599,48,-8,26,
684,6,2,2023,12,7,5,253,-1166,1589,3616,43,-4,26,
685,6,2,2023,12,7,5,263,-1149,1608,3593,28,-17,29,
686,6,2,2023,12,7,5,273,-1147,1582,3613,10,-16,27,
687,6,2,2023,12,7,5,283,-1154,1603,3585,-7,-22,25,
688,6,2,2023,12,7,5,293,-1154,1587,3589,-28,-19,21,
689,6,2,2023,12,7,5,303,-1141,1585,3608,-27,-12,19,
690,6,2,2023,12,7,5,313,-1147,1588,3600,-43,-16,15,
691,6,2,2023,12,7,5,323,-1144,1588,3601,-49,-19,13,
692,6,2,2023,12,7,5,333,-1147,1584,3598,-58,-13,10,
693,6,2,2023,12,7,5,343,-1154,1586,3601,-72,-9,9,
694,6,2,2023,12,7,5,353,-1151,1581,3598,-85,-11,15,
695,6,2,2023,12,7,5,363,-1157,1584,3604,-89,-3,11,
696,6,2,2023,12,7,5,373,-1147,1585,3603,-85,-9,8,
697,6,2,2023,12,7,5,383,-1151,1580,3604,-89,-13,1,
698,6,2,2023,12,7,5,393,-1155,1563,3609,-86,-10,2,
699,6,2,2023,12,7,5,403,-1153,1567,3605,-76,-10,2,
700,6,2,2023,12,7,5,413,-1159,1562,3612,-72,-3,-1,
701,6,2,2023,12,7,5,423,-1155,1562,3601,-70,-9,2,
702,6,2,2023,12,7,5,433,-1142,1562,3613,-71,-14,5,
703,6,2,2023,12,7,5,443,-1158,1566,3609,-71,-8,4,
704,6,2,2023,12,7,5,453,-1158,1556,3605,-66,-12,5,
705,6,2,2023,12,7,5,463,-1146,1561,3614,-52,0,4,
706,6,2,2023,12,7,5,473,-1143,1567,3616,-57,3,4,
707,6,2,2023,12,7,5,483,-1152,1547,3622,-57,4,7,
708,6,2,2023,12,7,5,493,-1160,1549,3617,-41,12,2,
709,6,2,2023,12,7,5,503,-1147,1549,3623,-27,17,1,
710,6,2,2023,12,7,5,513,-1144,1557,3613,-16,22,-1,
711,6,2,2023,12,7,5,523,-1147,1548,3624,-8,24,-4,
712,6,2,2023,12,7,5,533,-1147,1550,3617,4,24,-4,
713,6,2,2023,12,7,5,543,-1155,1548,3617,18,24,-1,
714,6,2,2023,12,7,5,553,-1155,1569,3614,28,23,0,
715,6,2,2023,12,7,5,563,-1162,1568,3607,25,19,1,
716,6,2,2023,12,7,5,573,-1159,1565,3607,14,10,5,
717,6,2,2023,12,7,5,583,-1158,1572,3609,-2,1,5,
718,6,2,2023,12,7,5,593,-1156,1570,3608,-16,-4,8,
719,6,2,2023,12,7,5,603,-1157,1569,3607,-20,-6,7,
720,6,2,2023,12,7,5,613,-1153,1552,3620,-27,-8,6,
721,6,2,2023,12,7,5,623,-1146,1561,3617,-17,-7,3,
722,6,2,2023,12,7,5,633,-1152,1550,3618,-14,-4,9,
723,6,2,2023,12,7,5,643,-1151,1566,3621,-9,0,5,
724,6,2,2023,12,7,5,653,-1143,1567,3613,-14,7,3,
725,6,2,2023,12,7,5,663,-1151,1557,3609,-16,11,2,
726,6,2,2023,12,7,5,673,-1152,1566,3615,-12,11,0,
727,6,2,2023,12,7,5,683,-1149,1553,3619,-10,17,-5,
728,6,2,2023,12,7,5,693,-1152,1557,3620,-9,19,-6,
729,6,2,2023,12,7,5,703,-1160,1550,3621,-5,17,-7,
730,6,2,2023,12,7,5,713,-1159,1561,3619,2,21,-8,
731,6,2,2023,12,7,5,723,-1166,1559,3619,6,20,-7,
732,6,2,2023,12,7,5,733,-1160,1575,3605,-1,18,-9,
733,6,2,2023,12,7,5,743,-1163,1539,3620,-9,14,-4,
734,6,2,2023,12,7,5,753,-1167,1565,3619,-3,13,2,
735,6,2,2023,12,7,5,763,-1170,1566,3612,-8,11,3,
736,6,2,2023,12,7,5,773,-1168,1531,3641,-1,4,8,
737,6,2,2023,12,7,5,783,-1153,1586,3597,0,-2,10,
738,6,2,2023,12,7,5,793,-1147,1555,3614,-17,0,12,
739,6,2,2023,12,7,5,803,-1147,1560,3584,-25,7,9,
740,6,2,2023,12,7,5,813,-1140,1576,3595,-21,43,-1,
741,6,2,2023,12,7,5,823,-1156,1547,3623,-39,61,0,
742,6,2,2023,12,7,5,833,-1119,1534,3551,-24,71,-2,
743,6,2,2023,12,7,5,843,-1166,1547,3631,-20,122,-18,
744,6,2,2023,12,7,5,853,-1176,1579,3646,-7,98,-8,
745,6,2,2023,12,7,5,863,-1156,1564,3600,-20,82,0,
746,6,2,2023,12,7,5,873,-1168,1560,3613,-22,84,-5,
747,6,2,2023,12,7,5,883,-1191,1571,3661,-16,70,-1,
748,6,2,2023,12,7,5,893,-1155,1590,3594,-47,23,5,
749,6,2,2023,12,7,5,903,-1173,1538,3623,-70,33,5,
750,6,2,2023,12,7,5,913,-1166,1537,3587,-48,41,2,
751,6,2,2023,12,7,5,923,-1192,1561,3648,-34,57,-2,
752,6,2,2023,12,7,5,933,-1176,1566,3636,-55,23,7,
753,6,2,2023,12,7,5,943,-1161,1546,3594,-67,4,8,
754,6,2,2023,12,7,5,953,-1171,1548,3599,-79,7,7,
755,6,2,2023,12,7,5,963,-1174,1533,3597,-81,2,5,
756,6,2,2023,12,7,5,973,-1195,1514,3623,-59,4,7,
757,6,2,2023,12,7,5,983,-1162,1522,3607,-14,-15,21,
758,6,2,2023,12,7,5,993,-1185,1509,3615,6,-15,25,
759,6,2,2023,12,7,6,3,-1158,1544,3618,34,-19,26,
760,6,2,2023,12,7,6,13,-1155,1524,3623,28,-17,24,
761,6,2,2023,12,7,6,23,-1176,1545,3607,35,-18,22,
762,6,2,2023,12,7,6,33,-1170,1545,3608,37,-15,23,
763,6,2,2023,12,7,6,43,-1158,1540,3617,43,-15,21,
764,6,2,2023,12,7,6,53,-1160,1549,3606,49,-18,17,
765,6,2,2023,12,7,6,63,-1160,1557,3605,48,-17,18,
766,6,2,2023,12,7,6,83,-1165,1561,3612,28,-12,14,
767,6,2,2023,12,7,6,93,-1159,1532,3627,20,-11,13,
768,6,2,2023,12,7,6,103,-1161,1545,3611,34,-10,14,
769,6,2,2023,12,7,6,113,-1163,1542,3619,33,-16,16,
770,6,2,2023,12,7,6,123,-1161,1559,3602,41,-16,16,
771,6,2,2023,12,7,6,133,-1162,1549,3609,37,-8,14,
772,6,2,2023,12,7,6,143,-1155,1550,3615,44,-3,13,
773,6,2,2023,12,7,6,153,-1152,1575,3603,36,-5,9,
774,6,2,2023,12,7,6,163,-1163,1549,3626,24,1,5,
775,6,2,2023,12,7,6,173,-1155,1582,3598,22,0,4,
776,6,2,2023,12,7,6,183,-1173,1538,3631,17,2,4,
777,6,2,2023,12,7,6,193,-1157,1586,3602,23,1,1,
778,6,2,2023,12,7,6,203,-1163,1543,3616,19,4,3,
779,6,2,2023,12,7,6,213,-1165,1538,3629,39,1,8,
780,6,2,2023,12,7,6,223,-1173,1577,3599,59,-3,11,
781,6,2,2023,12,7,6,233,-1169,1505,3636,67,-8,15,
782,6,2,2023,12,7,6,243,-1156,1595,3598,86,-19,23,
783,6,2,2023,12,7,6,253,-1161,1562,3613,62,-18,27,
784,6,2,2023,12,7,6,263,-1157,1592,3598,59,-23,23,
785,6,2,2023,12,7,6,273,-1163,1557,3635,43,-26,21,
786,6,2,2023,12,7,6,283,-1145,1599,3606,41,-34,22,
787,6,2,2023,12,7,6,293,-1165,1564,3636,28,-33,22,
788,6,2,2023,12,7,6,303,-1156,1573,3614,29,-45,20,
789,6,2,2023,12,7,6,313,-1147,1572,3618,23,-58,22,
790,6,2,2023,12,7,6,323,-1167,1554,3605,21,-60,27,
791,6,2,2023,12,7,6,333,-1159,1577,3612,27,-58,32,
792,6,2,2023,12,7,6,343,-1147,1571,3608,24,-63,32,
793,6,2,2023,12,7,6,353,-1142,1576,3608,22,-63,28,
794,6,2,2023,12,7,6,363,-1149,1580,3608,26,-59,28,
795,6,2,2023,12,7,6,373,-1142,1583,3598,35,-56,27,
796,6,2,2023,12,7,6,383,-1138,1580,3615,36,-49,22,
797,6,2,2023,12,7,6,393,-1146,1571,3597,28,-46,18,
798,6,2,2023,12,7,6,403,-1146,1574,3606,40,-47,23,
799,6,2,2023,12,7,6,413,-1142,1572,3608,41,-45,23,
800,6,2,2023,12,7,6,423,-1146,1592,3606,30,-46,28,
801,6,2,2023,12,7,6,433,-1140,1585,3603,21,-38,29,
802,6,2,2023,12,7,6,443,-1138,1582,3610,14,-36,26,
803,6,2,2023,12,7,6,453,-1119,1611,3599,-5,-34,22,
804,6,2,2023,12,7,6,463,-1133,1586,3598,-30,-26,13,
805,6,2,2023,12,7,6,473,-1137,1573,3605,-44,-25,9,
806,6,2,2023,12,7,6,483,-1135,1581,3609,-47,-22,5,
807,6,2,2023,12,7,6,493,-1129,1582,3598,-55,-21,1,
808,6,2,2023,12,7,6,503,-1133,1576,3608,-67,-15,-3,
809,6,2,2023,12,7,6,513,-1132,1580,3607,-70,-13,-4,
810,6,2,2023,12,7,6,523,-1127,1572,3619,-74,-15,0,
811,6,2,2023,12,7,6,533,-1131,1577,3628,-84,-16,-1,
812,6,2,2023,12,7,6,543,-1134,1570,3604,-84,-12,-7,
813,6,2,2023,12,7,6,553,-1133,1551,3626,-74,-4,-6,
814,6,2,2023,12,7,6,563,-1131,1553,3620,-61,-2,-8,
815,6,2,2023,12,7,6,573,-1128,1560,3617,-56,4,-14,
816,6,2,2023,12,7,6,583,-1134,1550,3620,-53,13,-14,
817,6,2,2023,12,7,6,593,-1139,1559,3611,-49,14,-18,
818,6,2,2023,12,7,6,603,-1142,1555,3632,-58,9,-16,
819,6,2,2023,12,7,6,613,-1134,1556,3618,-55,7,-9,
820,6,2,2023,12,7,6,623,-1147,1556,3622,-52,7,-12,
821,6,2,2023,12,7,6,633,-1141,1548,3626,-44,1,-7,
822,6,2,2023,12,7,6,643,-1132,1551,3626,-42,6,-9,
823,6,2,2023,12,7,6,653,-1147,1564,3609,-44,4,-12,
824,6,2,2023,12,7,6,663,-1131,1555,3619,-34,-3,-7,
825,6,2,2023,12,7,6,673,-1147,1539,3626,-34,-2,-6,
826,6,2,2023,12,7,6,683,-1128,1545,3633,-22,-2,-3,
827,6,2,2023,12,7,6,693,-1143,1549,3624,-20,-3,-4,
828,6,2,2023,12,7,6,703,-1136,1562,3626,-7,4,-5,
829,6,2,2023,12,7,6,713,-1136,1543,3637,-2,2,-4,
830,6,2,2023,12,7,6,723,-1138,1562,3622,0,-5,-2,
831,6,2,2023,12,7,6,733,-1138,1536,3628,5,-7,3,
832,6,2,2023,12,7,6,743,-1126,1573,3623,14,-7,2,
833,6,2,2023,12,7,6,753,-1133,1539,3617,4,-7,5,
834,6,2,2023,12,7,6,763,-1138,1549,3611,14,-5,3,
835,6,2,2023,12,7,6,773,-1138,1549,3625,33,-1,2,
836,6,2,2023,12,7,6,783,-1140,1563,3634,35,-2,1,
837,6,2,2023,12,7,6,793,-1141,1566,3620,34,-7,2,
838,6,2,2023,12,7,6,803,-1138,1564,3621,40,-12,7,
839,6,2,2023,12,7,6,813,-1147,1567,3636,36,-9,11,
840,6,2,2023,12,7,6,823,-1137,1553,3606,47,-15,17,
841,6,2,2023,12,7,6,833,-1141,1574,3606,60,-15,19,
842,6,2,2023,12,7,6,843,-1143,1561,3622,59,-12,19,
843,6,2,2023,12,7,6,853,-1129,1569,3625,66,-17,21,
844,6,2,2023,12,7,6,863,-1136,1569,3626,57,-14,21,
845,6,2,2023,12,7,6,873,-1128,1579,3609,52,-14,15,
846,6,2,2023,12,7,6,883,-1131,1570,3614,43,-17,15,
847,6,2,2023,12,7,6,893,-1136,1568,3617,36,-18,13,
848,6,2,2023,12,7,6,903,-1124,1567,3620,37,-23,14,
849,6,2,2023,12,7,6,913,-1129,1566,3620,26,-16,16,
850,6,2,2023,12,7,6,923,-1126,1573,3615,23,-12,14,
851,6,2,2023,12,7,6,943,-1135,1566,3624,16,-11,10,
852,6,2,2023,12,7,6,953,-1127,1577,3613,15,-10,5,
853,6,2,2023,12,7,6,963,-1111,1581,3607,9,-16,7,
854,6,2,2023,12,7,6,973,-1130,1556,3609,-3,-7,4,
855,6,2,2023,12,7,6,983,-1135,1564,3622,0,-10,5,
856,6,2,2023,12,7,6,993,-1132,1550,3635,15,-13,8,
857,6,2,2023,12,7,7,3,-1122,1571,3619,29,-17,9,
858,6,2,2023,12,7,7,13,-1124,1569,3618,24,-13,9,
859,6,2,2023,12,7,7,23,-1117,1566,3622,31,-12,10,
860,6,2,2023,12,7,7,33,-1118,1583,3610,28,-10,10,
861,6,2,2023,12,7,7,43,-1126,1580,3615,18,-10,7,
862,6,2,2023,12,7,7,53,-1120,1592,3606,4,-10,1,
863,6,2,2023,12,7,7,63,-1127,1588,3611,-12,-6,0,
864,6,2,2023,12,7,7,73,-1126,1593,3611,-26,-10,-1,
865,6,2,2023,12,7,7,83,-1115,1588,3609,-46,-15,-4,
866,6,2,2023,12,7,7,93,-1119,1584,3613,-62,-12,-8,
867,6,2,2023,12,7,7,103,-1130,1584,3613,-71,-11,-12,
868,6,2,2023,12,7,7,113,-1122,1562,3625,-76,-15,-8,
869,6,2,2023,12,7,7,123,-1123,1554,3621,-75,-13,-9,
870,6,2,2023,12,7,7,133,-1126,1555,3626,-73,-15,-7,
871,6,2,2023,12,7,7,143,-1126,1572,3632,-73,-20,-4,
872,6,2,2023,12,7,7,153,-1126,1548,3610,-81,-27,0,
873,6,2,2023,12,7,7,163,-1129,1546,3617,-72,-19,-3,
874,6,2,2023,12,7,7,173,-1120,1555,3630,-62,-19,-3,
875,6,2,2023,12,7,7,183,-1128,1546,3628,-69,-17,0,
876,6,2,2023,12,7,7,193,-1126,1568,3646,-68,-18,1,
877,6,2,2023,12,7,7,203,-1110,1557,3623,-72,-35,4,
878,6,2,2023,12,7,7,213,-1121,1547,3606,-74,-26,6,
879,6,2,2023,12,7,7,223,-1129,1553,3625,-57,-14,7,
880,6,2,2023,12,7,7,233,-1127,1549,3632,-47,-6,3,
881,6,2,2023,12,7,7,243,-1128,1537,3626,-47,-12,0,
882,6,2,2023,12,7,7,253,-1121,1535,3627,-38,-11,-1,
883,6,2,2023,12,7,7,263,-1118,1537,3636,-22,-9,0,
884,6,2,2023,12,7,7,273,-1105,1544,3625,-17,-5,-4,
885,6,2,2023,12,7,7,283,-1099,1539,3637,-20,-5,-1,
886,6,2,2023,12,7,7,293,-1118,1514,3640,-14,1,-4,
887,6,2,2023,12,7,7,303,-1119,1524,3640,3,5,-3,
888,6,2,2023,12,7,7,313,-1120,1546,3641,24,10,-1,
889,6,2,2023,12,7,7,323,-1117,1561,3624,39,14,-1,
890,6,2,2023,12,7,7,333,-1118,1547,3627,44,21,-2,
891,6,2,2023,12,7,7,343,-1108,1581,3615,48,22,-2,
892,6,2,2023,12,7,7,353,-1126,1572,3637,30,20,-3,
893,6,2,2023,12,7,7,363,-1116,1563,3620,20,13,-3,
894,6,2,2023,12,7,7,373,-1131,1566,3638,15,17,-6,
895,6,2,2023,12,7,7,383,-1121,1550,3609,9,4,-4,
896,6,2,2023,12,7,7,393,-1134,1555,3625,10,10,-3,
897,6,2,2023,12,7,7,403,-1124,1548,3631,13,5,-3,
898,6,2,2023,12,7,7,413,-1114,1555,3624,12,2,-5,
899,6,2,2023,12,7,7,423,-1124,1552,3625,7,-1,-3,
900,6,2,2023,12,7,7,433,-1126,1544,3627,8,-3,-2,
901,6,2,2023,12,7,7,443,-1123,1560,3622,13,-5,0,
902,6,2,2023,12,7,7,453,-1116,1553,3623,8,-5,2,
903,6,2,2023,12,7,7,463,-1111,1548,3619,6,0,1,
904,6,2,2023,12,7,7,473,-1111,1542,3627,17,12,-4,
905,6,2,2023,12,7,7,483,-1118,1537,3634,33,18,-10,
906,6,2,2023,12,7,7,493,-1120,1567,3610,43,20,-11,
907,6,2,2023,12,7,7,503,-1132,1530,3623,54,14,-7,
908,6,2,2023,12,7,7,513,-1124,1572,3607,58,13,-3,
909,6,2,2023,12,7,7,523,-1121,1573,3622,37,24,-6,
910,6,2,2023,12,7,7,533,-1132,1579,3612,27,24,-6,
911,6,2,2023,12,7,7,543,-1142,1537,3630,18,11,-4,
912,6,2,2023,12,7,7,553,-1125,1590,3607,19,1,-4,
913,6,2,2023,12,7,7,563,-1133,1552,3633,-3,-6,-2,
914,6,2,2023,12,7,7,573,-1121,1576,3614,-2,-18,2,
915,6,2,2023,12,7,7,583,-1114,1556,3616,-17,-12,-1,
916,6,2,2023,12,7,7,593,-1117,1554,3629,-22,-9,-4,
917,6,2,2023,12,7,7,603,-1131,1565,3621,-25,2,-7,
918,6,2,2023,12,7,7,613,-1108,1556,3627,-30,1,-9,
919,6,2,2023,12,7,7,623,-1119,1553,3616,-22,10,-11,
920,6,2,2023,12,7,7,633,-1121,1560,3630,-17,10,-13,
921,6,2,2023,12,7,7,643,-1133,1548,3644,-27,15,-16,
922,6,2,2023,12,7,7,653,-1132,1549,3620,-25,10,-14,
923,6,2,2023,12,7,7,663,-1118,1553,3614,-17,7,-11,
924,6,2,2023,12,7,7,673,-1106,1557,3618,-17,11,-11,
925,6,2,2023,12,7,7,683,-1127,1555,3633,-24,18,-15,
926,6,2,2023,12,7,7,693,-1138,1578,3621,-27,17,-18,
927,6,2,2023,12,7,7,703,-1121,1552,3630,-34,18,-13,
928,6,2,2023,12,7,7,713,-1136,1555,3632,-25,12,-13,
929,6,2,2023,12,7,7,723,-1126,1549,3632,-14,4,-16,
930,6,2,2023,12,7,7,733,-1128,1551,3630,-7,-3,-14,
931,6,2,2023,12,7,7,743,-1129,1543,3632,-4,5,-15,
932,6,2,2023,12,7,7,753,-1131,1567,3609,7,3,-16,
933,6,2,2023,12,7,7,763,-1141,1529,3628,6,3,-14,
934,6,2,2023,12,7,7,773,-1123,1574,3632,7,3,-12,
935,6,2,2023,12,7,7,783,-1133,1556,3631,-7,-12,-10,
936,6,2,2023,12,7,7,803,-1124,1555,3635,-19,-7,-10,
937,6,2,2023,12,7,7,813,-1122,1536,3612,-32,-8,-2,
938,6,2,2023,12,7,7,823,-1129,1539,3626,-20,-1,-3,
939,6,2,2023,12,7,7,833,-1128,1534,3628,-19,1,-8,
940,6,2,2023,12,7,7,843,-1124,1536,3630,-17,1,-7,
941,6,2,2023,12,7,7,853,-1128,1546,3635,-11,6,-8,
942,6,2,2023,12,7,7,863,-1130,1550,3625,-7,9,-8,
943,6,2,2023,12,7,7,873,-1126,1538,3622,-13,11,-8,
944,6,2,2023,12,7,7,883,-1116,1541,3625,-6,11,-8,
945,6,2,2023,12,7,7,893,-1128,1560,3637,-8,13,-13,
946,6,2,2023,12,7,7,903,-1131,1569,3610,-17,6,-17,
947,6,2,2023,12,7,7,913,-1137,1546,3651,-18,9,-14,
948,6,2,2023,12,7,7,923,-1124,1539,3627,-21,0,-17,
949,6,2,2023,12,7,7,933,-1127,1560,3607,-8,7,-20,
950,6,2,2023,12,7,7,943,-1133,1531,3644,1,15,-19,
951,6,2,2023,12,7,7,953,-1128,1545,3623,9,12,-17,
952,6,2,2023,12,7,7,963,-1138,1559,3628,11,15,-18,
953,6,2,2023,12,7,7,973,-1124,1540,3627,4,6,-11,
954,6,2,2023,12,7,7,983,-1143,1537,3632,-2,8,-7,
955,6,2,2023,12,7,7,993,-1137,1561,3621,0,6,-7,
956,6,2,2023,12,7,8,3,-1137,1551,3627,-3,5,-3,
957,6,2,2023,12,7,8,13,-1144,1542,3637,-3,3,-1,
958,6,2,2023,12,7,8,23,-1142,1550,3633,2,-4,-4,
959,6,2,2023,12,7,8,33,-1134,1529,3618,7,-6,1,
960,6,2,2023,12,7,8,43,-1119,1554,3630,8,-8,4,
961,6,2,2023,12,7,8,53,-1127,1560,3616,-1,-6,1,
962,6,2,2023,12,7,8,63,-1122,1537,3623,-8,-9,-1,
963,6,2,2023,12,7,8,73,-1116,1540,3625,-14,-5,0,
964,6,2,2023,12,7,8,83,-1123,1526,3639,-8,4,-1,
965,6,2,2023,12,7,8,93,-1123,1567,3627,11,10,-4,
966,6,2,2023,12,7,8,103,-1122,1546,3615,9,17,-6,
967,6,2,2023,12,7,8,113,-1142,1520,3646,23,20,-8,
968,6,2,2023,12,7,8,123,-1127,1562,3623,39,18,-5,
969,6,2,2023,12,7,8,133,-1145,1523,3645,39,14,-1,
970,6,2,2023,12,7,8,143,-1123,1558,3609,49,7,-4,
971,6,2,2023,12,7,8,153,-1137,1543,3626,43,12,-5,
972,6,2,2023,12,7,8,163,-1139,1552,3620,40,10,-4,
973,6,2,2023,12,7,8,173,-1130,1567,3622,42,6,-8,
974,6,2,2023,12,7,8,183,-1128,1540,3629,38,0,-9,
975,6,2,2023,12,7,8,193,-1131,1556,3617,29,-4,-7,
976,6,2,2023,12,7,8,203,-1130,1545,3636,25,-1,-9,
977,6,2,2023,12,7,8,213,-1131,1570,3619,22,4,-12,
978,6,2,2023,12,7,8,223,-1139,1557,3623,5,3,-13,
979,6,2,2023,12,7,8,233,-1132,1561,3616,0,0,-9,
980,6,2,2023,12,7,8,243,-1129,1556,3620,-2,9,-10,
981,6,2,2023,12,7,8,253,-1132,1549,3618,-1,10,-9,
982,6,2,2023,12,7,8,263,-1134,1548,3624,-1,4,-9,
983,6,2,2023,12,7,8,273,-1136,1552,3623,3,3,-8,
984,6,2,2023,12,7,8,283,-1136,1563,3616,3,5,-8,
985,6,2,2023,12,7,8,293,-1131,1553,3626,3,6,-9,
986,6,2,2023,12,7,8,303,-1139,1551,3619,5,3,-10,
987,6,2,2023,12,7,8,313,-1132,1546,3620,8,3,-10,
988,6,2,2023,12,7,8,323,-1137,1562,3629,5,2,-8,
989,6,2,2023,12,7,8,333,-1145,1553,3624,4,4,-2,
990,6,2,2023,12,7,8,343,-1139,1552,3628,5,1,-4,
991,6,2,2023,12,7,8,353,-1129,1554,3627,10,2,-4,
992,6,2,2023,12,7,8,363,-1123,1552,3625,0,1,-6,
993,6,2,2023,12,7,8,373,-1130,1544,3635,-8,0,-7,
994,6,2,2023,12,7,8,383,-1124,1557,3612,-5,4,-7,
995,6,2,2023,12,7,8,393,-1127,1557,3615,-9,8,-9,
996,6,2,2023,12,7,8,403,-1150,1530,3649,-5,7,-2,
997,6,2,2023,12,7,8,413,-1136,1576,3626,-11,-12,0,
998,6,2,2023,12,7,8,423,-1135,1545,3602,-29,-22,3,
999,6,2,2023,12,7,8,433,-1146,1539,3610,-26,-13,7,
1000,6,2,2023,12,7,8,443,-1134,1559,3629,-25,-13,2,
1001,6,2,2023,12,7,8,453,-1140,1551,3627,-29,-13,6,
1002,6,2,2023,12,7,8,463,-1143,1560,3623,-24,-15,5,
1003,6,2,2023,12,7,8,473,-1132,1547,3630,-24,-19,6,
1004,6,2,2023,12,7,8,483,-1134,1553,3623,-23,-19,5,
1005,6,2,2023,12,7,8,493,-1131,1548,3628,-19,-21,5,
1006,6,2,2023,12,7,8,503,-1132,1564,3624,-20,-17,5,
1007,6,2,2023,12,7,8,513,-1132,1547,3626,-26,-16,2,
1008,6,2,2023,12,7,8,523,-1131,1550,3620,-28,-13,-1,
1009,6,2,2023,12,7,8,533,-1130,1544,3620,-33,-12,-1,
1010,6,2,2023,12,7,8,543,-1123,1547,3624,-33,-7,-3,
1011,6,2,2023,12,7,8,553,-1123,1552,3629,-32,-3,-1,
1012,6,2,2023,12,7,8,563,-1126,1554,3620,-34,-1,-4,
1013,6,2,2023,12,7,8,573,-1128,1532,3622,-33,0,-7,
1014,6,2,2023,12,7,8,583,-1131,1539,3630,-29,1,-7,
1015,6,2,2023,12,7,8,593,-1135,1548,3629,-21,1,-2,
1016,6,2,2023,12,7,8,603,-1133,1534,3623,-19,4,-2,
1017,6,2,2023,12,7,8,613,-1134,1533,3625,-18,-1,-2,
1018,6,2,2023,12,7,8,623,-1129,1545,3632,-16,-4,4,
1019,6,2,2023,12,7,8,633,-1127,1538,3637,-9,-3,2,
1020,6,2,2023,12,7,8,643,-1131,1536,3627,-3,-6,5,
1021,6,2,2023,12,7,8,663,-1132,1535,3641,0,-1,10,
1022,6,2,2023,12,7,8,673,-1130,1525,3636,9,-2,15,
1023,6,2,2023,12,7,8,683,-1130,1538,3622,18,-7,14,
1024,6,2,2023,12,7,8,693,-1126,1549,3624,20,-5,19,
1025,6,2,2023,12,7,8,703,-1127,1544,3625,23,-5,15,
1026,6,2,2023,12,7,8,713,-1123,1553,3624,22,-4,12,
1027,6,2,2023,12,7,8,723,-1126,1554,3621,20,-2,15,
1028,6,2,2023,12,7,8,733,-1132,1551,3629,17,-4,14,
1029,6,2,2023,12,7,8,743,-1134,1549,3630,16,-5,9,
1030,6,2,2023,12,7,8,753,-1136,1554,3622,18,-6,11,
1031,6,2,2023,12,7,8,763,-1129,1553,3631,14,-3,12,
1032,6,2,2023,12,7,8,773,-1119,1550,3628,12,-7,13,
1033,6,2,2023,12,7,8,783,-1123,1543,3624,10,-6,11,
1034,6,2,2023,12,7,8,793,-1130,1550,3625,11,-1,9,
1035,6,2,2023,12,7,8,803,-1122,1548,3632,11,-2,9,
1036,6,2,2023,12,7,8,813,-1120,1548,3621,14,0,5,
1037,6,2,2023,12,7,8,823,-1119,1544,3625,13,4,2,
1038,6,2,2023,12,7,8,833,-1116,1556,3624,11,4,0,
1039,6,2,2023,12,7,8,843,-1125,1554,3625,3,5,1,
1040,6,2,2023,12,7,8,853,-1126,1548,3623,4,7,-2,
1041,6,2,2023,12,7,8,863,-1125,1551,3624,6,8,1,
1042,6,2,2023,12,7,8,873,-1122,1552,3631,7,5,3,
1043,6,2,2023,12,7,8,883,-1123,1555,3621,6,5,2,
1044,6,2,2023,12,7,8,893,-1127,1552,3618,6,4,2,
1045,6,2,2023,12,7,8,903,-1132,1554,3630,-3,4,-1,
1046,6,2,2023,12,7,8,913,-1132,1553,3625,-6,2,3,
1047,6,2,2023,12,7,8,923,-1127,1548,3624,-8,0,3,
1048,6,2,2023,12,7,8,933,-1123,1547,3629,-5,0,3,
1049,6,2,2023,12,7,8,943,-1124,1550,3629,-8,0,2,
1050,6,2,2023,12,7,8,953,-1124,1553,3628,-6,0,3,
1051,6,2,2023,12,7,8,963,-1126,1550,3626,-8,0,1,
1052,6,2,2023,12,7,8,973,-1127,1551,3627,-8,1,1,
1053,6,2,2023,12,7,8,983,-1128,1546,3629,-3,2,-2,
1054,6,2,2023,12,7,8,993,-1131,1547,3632,-2,4,-2,
1055,6,2,2023,12,7,9,3,-1127,1555,3632,1,3,1,
1056,6,2,2023,12,7,9,13,-1128,1545,3631,1,2,-2,
1057,6,2,2023,12,7,9,23,-1125,1545,3634,2,5,-2,
1058,6,2,2023,12,7,9,33,-1127,1551,3627,5,5,-4,
1059,6,2,2023,12,7,9,43,-1134,1542,3628,2,5,-3,
1060,6,2,2023,12,7,9,53,-1142,1558,3627,-2,3,2,
1061,6,2,2023,12,7,9,63,-1129,1538,3630,-6,0,4,
1062,6,2,2023,12,7,9,73,-1130,1544,3627,3,2,4,
1063,6,2,2023,12,7,9,83,-1116,1559,3635,3,-4,3,
1064,6,2,2023,12,7,9,93,-1139,1546,3623,-2,3,2,
1065,6,2,2023,12,7,9,103,-1132,1544,3625,1,-1,3,
1066,6,2,2023,12,7,9,113,-1126,1543,3624,9,-3,3,
1067,6,2,2023,12,7,9,123,-1132,1539,3632,10,-1,8,
1068,6,2,2023,12,7,9,133,-1130,1556,3632,18,-4,9,
1069,6,2,2023,12,7,9,143,-1128,1540,3634,20,-4,11,
1070,6,2,2023,12,7,9,153,-1119,1546,3619,25,-7,14,
1071,6,2,2023,12,7,9,163,-1115,1549,3623,13,-10,17,
1072,6,2,2023,12,7,9,173,-1114,1565,3614,-1,-7,13,
1073,6,2,2023,12,7,9,183,-1125,1542,3636,-10,-1,9,
1074,6,2,2023,12,7,9,193,-1121,1565,3615,-5,5,7,
1075,6,2,2023,12,7,9,203,-1124,1547,3623,-6,7,4,
1076,6,2,2023,12,7,9,213,-1120,1546,3630,-5,6,0,
1077,6,2,2023,12,7,9,223,-1129,1553,3627,-4,7,0,
1078,6,2,2023,12,7,9,233,-1124,1546,3630,-6,8,-1,
1079,6,2,2023,12,7,9,243,-1119,1548,3623,-3,8,-4,
1080,6,2,2023,12,7,9,253,-1119,1548,3629,1,8,-4,
1081,6,2,2023,12,7,9,263,-1126,1544,3632,3,10,-2,
1082,6,2,2023,12,7,9,273,-1130,1554,3626,7,7,-1,
1083,6,2,2023,12,7,9,283,-1130,1552,3624,6,7,1,
1084,6,2,2023,12,7,9,293,-1133,1546,3625,7,5,-1,
1085,6,2,2023,12,7,9,303,-1131,1549,3629,7,5,-3,
1086,6,2,2023,12,7,9,313,-1124,1547,3630,10,6,-4,
1087,6,2,2023,12,7,9,323,-1124,1549,3629,10,6,-4,
1088,6,2,2023,12,7,9,333,-1127,1552,3626,12,6,-1,
1089,6,2,2023,12,7,9,343,-1132,1551,3627,12,5,1,
1090,6,2,2023,12,7,9,353,-1128,1545,3629,10,5,0,
1091,6,2,2023,12,7,9,363,-1129,1555,3632,12,5,2,
1092,6,2,2023,12,7,9,373,-1129,1565,3626,9,5,1,
1093,6,2,2023,12,7,9,383,-1123,1557,3627,4,5,-1,
1094,6,2,2023,12,7,9,393,-1132,1552,3629,3,5,-1,
1095,6,2,2023,12,7,9,403,-1134,1555,3626,3,3,-1,
1096,6,2,2023,12,7,9,413,-1126,1554,3627,3,1,5,
1097,6,2,2023,12,7,9,423,-1133,1553,3625,4,-1,3,
1098,6,2,2023,12,7,9,433,-1125,1547,3628,8,4,3,
1099,6,2,2023,12,7,9,443,-1118,1554,3626,8,1,1,
1100,6,2,2023,12,7,9,453,-1122,1556,3623,4,6,-3,
1101,6,2,2023,12,7,9,463,-1124,1552,3622,7,8,-6,
1102,6,2,2023,12,7,9,473,-1132,1551,3625,9,8,-6,
1103,6,2,2023,12,7,9,483,-1127,1558,3620,12,8,0,
1104,6,2,2023,12,7,9,493,-1131,1534,3638,15,4,0,
1105,6,2,2023,12,7,9,503,-1123,1575,3618,17,2,-2,
1106,6,2,2023,12,7,9,523,-1127,1559,3620,-1,0,-2,
1107,6,2,2023,12,7,9,533,-1130,1555,3622,-6,0,-2,
1108,6,2,2023,12,7,9,543,-1129,1552,3622,-7,3,0,
1109,6,2,2023,12,7,9,553,-1130,1555,3632,2,1,2,
1110,6,2,2023,12,7,9,563,-1126,1551,3628,4,-1,-1,
1111,6,2,2023,12,7,9,573,-1125,1555,3626,6,0,1,
1112,6,2,2023,12,7,9,583,-1132,1569,3618,2,-1,7,
1113,6,2,2023,12,7,9,593,-1124,1560,3620,-2,-3,4,
1114,6,2,2023,12,7,9,603,-1125,1549,3627,-5,0,4,
1115,6,2,2023,12,7,9,613,-1128,1563,3618,-9,-2,5,
1116,6,2,2023,12,7,9,623,-1128,1549,3627,-13,-1,3,
1117,6,2,2023,12,7,9,633,-1130,1562,3619,-5,-1,5,
1118,6,2,2023,12,7,9,643,-1129,1557,3627,0,0,3,
1119,6,2,2023,12,7,9,653,-1125,1546,3631,-3,1,4,
1120,6,2,2023,12,7,9,663,-1120,1562,3621,3,-1,3,
1121,6,2,2023,12,7,9,673,-1124,1547,3631,1,2,2,
1122,6,2,2023,12,7,9,683,-1127,1559,3624,-2,4,4,
1123,6,2,2023,12,7,9,693,-1127,1558,3621,-4,-1,7,
1124,6,2,2023,12,7,9,703,-1122,1556,3627,-7,2,2,
1125,6,2,2023,12,7,9,713,-1127,1552,3627,-9,4,2,
1126,6,2,2023,12,7,9,723,-1114,1554,3628,-6,3,1,
1127,6,2,2023,12,7,9,733,-1122,1550,3630,-4,3,3,
1128,6,2,2023,12,7,9,743,-1131,1556,3618,-6,4,2,
1129,6,2,2023,12,7,9,753,-1124,1550,3623,-4,7,0,
1130,6,2,2023,12,7,9,763,-1122,1555,3628,3,4,4,
1131,6,2,2023,12,7,9,773,-1124,1556,3626,1,5,2,
1132,6,2,2023,12,7,9,783,-1134,1556,3617,1,4,1,
1133,6,2,2023,12,7,9,793,-1126,1556,3626,1,5,1,
1134,6,2,2023,12,7,9,803,-1129,1557,3630,2,8,-3,
1135,6,2,2023,12,7,9,813,-1128,1552,3623,-5,1,4,
1136,6,2,2023,12,7,9,823,-1121,1552,3621,-2,2,5,
1137,6,2,2023,12,7,9,833,-1121,1555,3626,-3,3,2,
1138,6,2,2023,12,7,9,843,-1121,1552,3624,-4,2,3,
1139,6,2,2023,12,7,9,853,-1129,1548,3622,-5,5,0,
1140,6,2,2023,12,7,9,863,-1126,1558,3633,2,5,-5,
1141,6,2,2023,12,7,9,873,-1122,1556,3623,6,8,-2,
1142,6,2,2023,12,7,9,883,-1122,1549,3625,8,4,-2,
1143,6,2,2023,12,7,9,893,-1122,1550,3627,6,7,-1,
1144,6,2,2023,12,7,9,903,-1120,1561,3621,1,8,0,
1145,6,2,2023,12,7,9,913,-1135,1549,3633,-4,13,-6,
1146,6,2,2023,12,7,9,923,-1135,1548,3616,5,9,-5,
1147,6,2,2023,12,7,9,933,-1112,1557,3623,6,7,-2,
1148,6,2,2023,12,7,9,943,-1124,1549,3614,3,10,-2,
1149,6,2,2023,12,7,9,953,-1120,1549,3628,1,8,-6,
1150,6,2,2023,12,7,9,963,-1125,1564,3620,3,10,-10,
1151,6,2,2023,12,7,9,973,-1132,1548,3631,-1,6,-9,
1152,6,2,2023,12,7,9,983,-1129,1559,3612,2,8,-9,
1153,6,2,2023,12,7,9,993,-1130,1552,3621,0,9,-7,
1154,6,2,2023,12,7,10,3,-1136,1553,3620,-3,9,-9,
1155,6,2,2023,12,7,10,13,-1128,1546,3621,-3,6,-7,
1156,6,2,2023,12,7,10,23,-1125,1549,3623,-2,6,-5,
1157,6,2,2023,12,7,10,33,-1139,1539,3629,-1,9,-7,
1158,6,2,2023,12,7,10,43,-1124,1549,3618,-1,7,-9,
1159,6,2,2023,12,7,10,53,-1126,1552,3623,-13,3,-12,
1160,6,2,2023,12,7,10,63,-1132,1546,3624,-9,7,-13,
1161,6,2,2023,12,7,10,73,-1125,1548,3617,3,11,-6,
1162,6,2,2023,12,7,10,83,-1125,1556,3625,0,13,-9,
1163,6,2,2023,12,7,10,93,-1130,1557,3625,1,16,-9,
1164,6,2,2023,12,7,10,103,-1135,1548,3639,3,13,-7,
1165,6,2,2023,12,7,10,113,-1138,1557,3613,3,8,-10,
1166,6,2,2023,12,7,10,123,-1142,1540,3619,9,9,-9,
1167,6,2,2023,12,7,10,133,-1122,1568,3627,16,9,-6,
1168,6,2,2023,12,7,10,143,-1152,1552,3631,8,7,2,
1169,6,2,2023,12,7,10,153,-1122,1570,3620,9,-3,8,
1170,6,2,2023,12,7,10,163,-1132,1538,3634,11,6,5,
1171,6,2,2023,12,7,10,173,-1121,1569,3609,19,6,3,
1172,6,2,2023,12,7,10,183,-1142,1530,3642,11,5,7,
1173,6,2,2023,12,7,10,193,-1133,1585,3611,11,0,4,
1174,6,2,2023,12,7,10,203,-1124,1543,3634,2,3,1,
1175,6,2,2023,12,7,10,213,-1124,1551,3625,9,4,1,
1176,6,2,2023,12,7,10,223,-1133,1549,3634,5,4,-1,
1177,6,2,2023,12,7,10,233,-1136,1568,3618,5,4,-1,
1178,6,2,2023,12,7,10,243,-1137,1561,3626,0,4,-3,
1179,6,2,2023,12,7,10,253,-1132,1549,3628,4,2,-5,
1180,6,2,2023,12,7,10,263,-1125,1555,3620,10,8,-5,
1181,6,2,2023,12,7,10,273,-1131,1558,3617,11,7,-3,
1182,6,2,2023,12,7,10,283,-1127,1571,3619,9,9,-5,
1183,6,2,2023,12,7,10,293,-1138,1561,3625,4,9,-10,
1184,6,2,2023,12,7,10,303,-1131,1557,3612,1,5,-5,
1185,6,2,2023,12,7,10,313,-1130,1551,3613,-3,4,-6,
1186,6,2,2023,12,7,10,323,-1135,1564,3622,-5,1,-7,
1187,6,2,2023,12,7,10,333,-1146,1557,3624,-6,1,-6,
1188,6,2,2023,12,7,10,343,-1129,1561,3629,-2,-3,-7,
1189,6,2,2023,12,7,10,353,-1134,1551,3620,-13,-7,-2,
1190,6,2,2023,12,7,10,363,-1133,1551,3615,-12,0,-1,
1191,6,2,2023,12,7,10,383,-1134,1553,3621,-4,4,-7,
1192,6,2,2023,12,7,10,393,-1128,1566,3618,-5,2,-6,
1193,6,2,2023,12,7,10,403,-1128,1557,3618,-4,6,-6,
1194,6,2,2023,12,7,10,413,-1140,1554,3636,2,9,-7,
1195,6,2,2023,12,7,10,423,-1134,1555,3625,-1,6,-7,
1196,6,2,2023,12,7,10,433,-1143,1554,3621,-3,5,-5,
1197,6,2,2023,12,7,10,443,-1135,1559,3628,-4,4,-2,
1198,6,2,2023,12,7,10,453,-1126,1549,3626,-5,3,0,
1199,6,2,2023,12,7,10,463,-1131,1552,3626,0,3,1,
1200,6,2,2023,12,7,10,473,-1133,1552,3624,4,3,1,
1201,6,2,2023,12,7,10,483,-1132,1560,3619,3,4,-2,
1202,6,2,2023,12,7,10,493,-1130,1557,3618,3,7,-3,
1203,6,2,2023,12,7,10,503,-1133,1553,3624,2,6,0,
1204,6,2,2023,12,7,10,513,-1130,1559,3624,4,2,0,
1205,6,2,2023,12,7,10,523,-1134,1550,3629,6,5,-3,
1206,6,2,2023,12,7,10,533,-1131,1552,3624,7,5,-2,
1207,6,2,2023,12,7,10,543,-1134,1554,3624,5,1,0,
1208,6,2,2023,12,7,10,553,-1135,1554,3613,6,1,3,
1209,6,2,2023,12,7,10,563,-1139,1556,3616,9,5,2,
1210,6,2,2023,12,7,10,573,-1134,1554,3622,7,6,4,
1211,6,2,2023,12,7,10,583,-1136,1547,3624,6,7,0,
1212,6,2,2023,12,7,10,593,-1130,1551,3624,7,10,-1,
1213,6,2,2023,12,7,10,603,-1120,1554,3605,15,6,3,
1214,6,2,2023,12,7,10,613,-1136,1532,3647,23,8,3,
1215,6,2,2023,12,7,10,623,-1133,1570,3615,37,15,0,
1216,6,2,2023,12,7,10,633,-1137,1547,3626,29,13,-2,
1217,6,2,2023,12,7,10,643,-1123,1563,3608,38,12,-1,
1218,6,2,2023,12,7,10,653,-1140,1559,3625,28,14,-3,
1219,6,2,2023,12,7,10,663,-1137,1571,3621,27,8,0,
1220,6,2,2023,12,7,10,673,-1137,1555,3613,19,13,-2,
1221,6,2,2023,12,7,10,683,-1134,1553,3623,24,12,-2,
1222,6,2,2023,12,7,10,693,-1131,1557,3629,28,11,3,
1223,6,2,2023,12,7,10,703,-1140,1569,3614,27,16,-2,
1224,6,2,2023,12,7,10,713,-1139,1550,3623,25,12,-4,
1225,6,2,2023,12,7,10,723,-1136,1567,3611,30,12,-3,
1226,6,2,2023,12,7,10,733,-1135,1560,3620,25,16,-2,
1227,6,2,2023,12,7,10,743,-1146,1561,3623,24,11,0,
1228,6,2,2023,12,7,10,753,-1134,1572,3612,22,9,-3,
1229,6,2,2023,12,7,10,763,-1140,1560,3618,17,9,-2,
1230,6,2,2023,12,7,10,773,-1138,1570,3609,16,9,2,
1231,6,2,2023,12,7,10,783,-1130,1567,3623,16,5,-1,
1232,6,2,2023,12,7,10,793,-1129,1567,3617,10,4,2,
1233,6,2,2023,12,7,10,803,-1137,1565,3610,8,6,2,
1234,6,2,2023,12,7,10,813,-1138,1563,3616,8,7,1,
1235,6,2,2023,12,7,10,823,-1143,1574,3620,6,7,2,
1236,6,2,2023,12,7,10,833,-1140,1569,3623,5,6,4,
1237,6,2,2023,12,7,10,843,-1142,1567,3616,6,4,7,
1238,6,2,2023,12,7,10,853,-1143,1570,3616,5,1,6,
1239,6,2,2023,12,7,10,863,-1138,1566,3618,3,5,3,
1240,6,2,2023,12,7,10,873,-1137,1569,3618,2,4,2,
1241,6,2,2023,12,7,10,883,-1143,1566,3616,2,2,5,
1242,6,2,2023,12,7,10,893,-1138,1567,3620,2,-1,3,
1243,6,2,2023,12,7,10,903,-1134,1567,3614,-6,1,4,
1244,6,2,2023,12,7,10,913,-1135,1561,3612,-5,0,3,
1245,6,2,2023,12,7,10,923,-1143,1554,3613,-2,-3,6,
1246,6,2,2023,12,7,10,933,-1133,1563,3610,-1,-2,6,
1247,6,2,2023,12,7,10,943,-1133,1568,3613,0,-2,3,
1248,6,2,2023,12,7,10,953,-1130,1567,3616,-1,0,5,
1249,6,2,2023,12,7,10,963,-1144,1562,3617,-4,0,2,
1250,6,2,2023,12,7,10,973,-1136,1562,3617,-1,-2,7,
1251,6,2,2023,12,7,10,983,-1131,1562,3616,-3,-2,8,
1252,6,2,2023,12,7,10,993,-1139,1562,3619,-3,-4,8,
1253,6,2,2023,12,7,11,3,-1142,1556,3622,1,-3,8,
1254,6,2,2023,12,7,11,13,-1137,1564,3621,2,-5,8,
1255,6,2,2023,12,7,11,23,-1136,1568,3615,0,-5,11,
1256,6,2,2023,12,7,11,33,-1139,1562,3613,1,-7,14,
1257,6,2,2023,12,7,11,43,-1145,1558,3630,6,-3,12,
1258,6,2,2023,12,7,11,53,-1140,1563,3621,10,-2,12,
1259,6,2,2023,12,7,11,63,-1131,1554,3622,12,-2,16,
1260,6,2,2023,12,7,11,73,-1130,1577,3601,9,-2,14,
1261,6,2,2023,12,7,11,83,-1133,1565,3615,7,0,12,
1262,6,2,2023,12,7,11,93,-1140,1549,3626,5,-3,12,
1263,6,2,2023,12,7,11,103,-1136,1568,3617,7,-5,14,
1264,6,2,2023,12,7,11,113,-1136,1562,3615,3,-5,17,
1265,6,2,2023,12,7,11,123,-1134,1560,3615,7,-8,21,
1266,6,2,2023,12,7,11,133,-1139,1559,3625,12,-8,24,
1267,6,2,2023,12,7,11,143,-1131,1571,3615,15,-10,26,
1268,6,2,2023,12,7,11,153,-1134,1571,3613,13,-9,24,
1269,6,2,2023,12,7,11,163,-1139,1573,3621,11,-12,25,
1270,6,2,2023,12,7,11,173,-1129,1572,3609,12,-12,25,
1271,6,2,2023,12,7,11,183,-1135,1572,3620,10,-12,23,
1272,6,2,2023,12,7,11,193,-1137,1579,3613,11,-19,24,
1273,6,2,2023,12,7,11,203,-1128,1544,3624,13,-18,29,
1274,6,2,2023,12,7,11,213,-1129,1561,3609,20,-17,29,
1275,6,2,2023,12,7,11,223,-1138,1539,3626,28,-10,32,
1276,6,2,2023,12,7,11,243,-1142,1541,3628,26,-7,35,
1277,6,2,2023,12,7,11,253,-1130,1598,3603,46,-11,38,
1278,6,2,2023,12,7,11,263,-1128,1551,3631,45,-10,45,
1279,6,2,2023,12,7,11,273,-1130,1599,3603,42,-11,43,
1280,6,2,2023,12,7,11,283,-1130,1575,3612,40,-8,43,
1281,6,2,2023,12,7,11,293,-1124,1591,3603,31,-12,41,
1282,6,2,2023,12,7,11,303,-1124,1577,3617,39,-11,41,
1283,6,2,2023,12,7,11,313,-1126,1607,3601,39,-15,33,
1284,6,2,2023,12,7,11,323,-1128,1562,3625,22,-14,27,
1285,6,2,2023,12,7,11,333,-1112,1590,3602,34,-11,35,
1286,6,2,2023,12,7,11,343,-1124,1589,3600,28,-12,29,
1287,6,2,2023,12,7,11,353,-1120,1593,3615,22,-11,25,
1288,6,2,2023,12,7,11,363,-1116,1612,3602,19,-10,23,
1289,6,2,2023,12,7,11,373,-1124,1570,3611,10,-10,18,
1290,6,2,2023,12,7,11,383,-1110,1587,3609,20,-9,13,
1291,6,2,2023,12,7,11,393,-1108,1600,3614,18,-6,15,
1292,6,2,2023,12,7,11,403,-1115,1584,3618,8,-1,12,
1293,6,2,2023,12,7,11,413,-1109,1597,3602,14,4,11,
1294,6,2,2023,12,7,11,423,-1118,1586,3614,17,9,8,
1295,6,2,2023,12,7,11,433,-1124,1589,3603,16,13,2,
1296,6,2,2023,12,7,11,443,-1124,1591,3614,21,17,1,
1297,6,2,2023,12,7,11,453,-1123,1592,3623,34,21,1,
1298,6,2,2023,12,7,11,463,-1126,1606,3606,29,28,-4,
1299,6,2,2023,12,7,11,473,-1125,1607,3602,27,28,-8,
1300,6,2,2023,12,7,11,483,-1120,1600,3610,29,26,-9,
1301,6,2,2023,12,7,11,493,-1136,1598,3610,30,30,-11,
1302,6,2,2023,12,7,11,503,-1125,1596,3603,32,33,-11,
1303,6,2,2023,12,7,11,513,-1133,1580,3628,42,35,-9,
1304,6,2,2023,12,7,11,523,-1113,1607,3609,50,33,-7,
1305,6,2,2023,12,7,11,533,-1126,1602,3608,55,35,-12,
1306,6,2,2023,12,7,11,543,-1131,1580,3593,66,43,-15,
1307,6,2,2023,12,7,11,553,-1135,1611,3624,98,58,-20,
1308,6,2,2023,12,7,11,563,-1145,1600,3609,128,63,-18,
1309,6,2,2023,12,7,11,573,-1144,1592,3601,174,66,-13,
1310,6,2,2023,12,7,11,583,-1135,1620,3619,216,70,-12,
1311,6,2,2023,12,7,11,593,-1136,1629,3613,226,67,-20,
1312,6,2,2023,12,7,11,603,-1128,1609,3581,244,75,-27,
1313,6,2,2023,12,7,11,613,-1148,1622,3614,303,96,-33,
1314,6,2,2023,12,7,11,623,-1142,1663,3600,339,91,-29,
1315,6,2,2023,12,7,11,633,-1124,1611,3580,364,93,-36,
1316,6,2,2023,12,7,11,643,-1146,1658,3608,417,111,-41,
1317,6,2,2023,12,7,11,653,-1125,1656,3557,453,119,-42,
1318,6,2,2023,12,7,11,663,-1137,1729,3540,509,143,-56,
1319,6,2,2023,12,7,11,673,-1123,1760,3539,568,177,-84,
1320,6,2,2023,12,7,11,683,-1114,1750,3571,652,205,-138,
1321,6,2,2023,12,7,11,693,-1123,1768,3543,795,238,-192,
1322,6,2,2023,12,7,11,703,-1125,1715,3523,972,264,-287,
1323,6,2,2023,12,7,11,713,-1056,1863,3489,1194,265,-385,
1324,6,2,2023,12,7,11,723,-930,1793,3566,1321,294,-560,
1325,6,2,2023,12,7,11,733,-948,1300,3874,1508,349,-811,
1326,6,2,2023,12,7,11,743,-712,1803,3717,2092,391,-1124,
1327,6,2,2023,12,7,11,753,-492,1958,3819,2405,699,-1433,
1328,6,2,2023,12,7,11,763,-742,2012,3969,2583,1074,-2053,
1329,6,2,2023,12,7,11,773,-445,3552,3557,3121,1381,-2599,
1330,6,2,2023,12,7,11,783,-690,4290,4010,2850,2106,-2952,
1331,6,2,2023,12,7,11,793,421,5391,4837,2675,2246,-3157,
1332,6,2,2023,12,7,11,803,2093,7108,4180,2406,1959,-2687,
1333,6,2,2023,12,7,11,813,2395,7144,3486,1027,2179,-1594,
1334,6,2,2023,12,7,11,823,2498,6794,3356,232,2142,-211,
1335,6,2,2023,12,7,11,833,3201,5136,4270,-276,1844,889,
1336,6,2,2023,12,7,11,843,3464,3363,3487,11,1415,1750,
1337,6,2,2023,12,7,11,853,3255,2365,4029,613,1143,2226,
1338,6,2,2023,12,7,11,863,3119,1935,4889,1053,552,2257,
1339,6,2,2023,12,7,11,873,2566,1919,5759,1371,-309,2217,
1340,6,2,2023,12,7,11,883,2306,1859,6042,1555,-1466,2141,
1341,6,2,2023,12,7,11,893,2218,2169,6024,1089,-2414,1764,
1342,6,2,2023,12,7,11,903,1943,1955,5752,677,-3296,1619,
1343,6,2,2023,12,7,11,913,1659,1885,5321,365,-4052,1440,
1344,6,2,2023,12,7,11,923,1366,2079,5049,340,-4634,1310,
1345,6,2,2023,12,7,11,933,1018,2518,4709,390,-5103,1296,
1346,6,2,2023,12,7,11,943,856,2915,4035,245,-5394,1315,
1347,6,2,2023,12,7,11,953,645,3046,3568,25,-5351,1335,
1348,6,2,2023,12,7,11,963,382,3203,3229,-69,-5104,1399,
1349,6,2,2023,12,7,11,973,190,3499,3039,56,-4747,1583,
1350,6,2,2023,12,7,11,983,-134,3960,3057,261,-4292,1895,
1351,6,2,2023,12,7,11,993,-503,4491,3294,314,-3846,2287,
1352,6,2,2023,12,7,12,3,-917,4911,3585,230,-3440,2814,
1353,6,2,2023,12,7,12,13,-1562,4816,4293,297,-3073,3565,
1354,6,2,2023,12,7,12,23,-2022,4163,4299,327,-2991,4397,
1355,6,2,2023,12,7,12,33,-2133,3296,3744,296,-2939,4989,
1356,6,2,2023,12,7,12,43,-2263,1867,3190,-54,-2683,5128,
1357,6,2,2023,12,7,12,53,-3041,775,3244,-117,-2402,4650,
1358,6,2,2023,12,7,12,63,-3071,637,3304,-16,-2266,3832,
1359,6,2,2023,12,7,12,73,-3123,606,3176,-15,-2195,3065,
1360,6,2,2023,12,7,12,83,-2886,408,2391,-258,-2080,2160,
1361,6,2,2023,12,7,12,103,-3450,404,2578,-159,-1391,514,
1362,6,2,2023,12,7,12,113,-3401,1101,4059,892,-1720,394,
1363,6,2,2023,12,7,12,123,-3397,1429,2954,1630,-1559,530,
1364,6,2,2023,12,7,12,133,-2994,1421,2520,1527,-1756,409,
1365,6,2,2023,12,7,12,143,-2940,753,1910,837,-1262,49,
1366,6,2,2023,12,7,12,153,-3155,204,1822,528,-958,-276,
1367,6,2,2023,12,7,12,163,-3072,347,2227,618,-1022,-507,
1368,6,2,2023,12,7,12,173,-2904,836,2160,643,-512,-735,
1369,6,2,2023,12,7,12,183,-2851,1118,1676,313,58,-979,
1370,6,2,2023,12,7,12,193,-2527,1033,1377,-206,220,-1272,
1371,6,2,2023,12,7,12,203,-2303,1060,1473,-528,590,-1515,
1372,6,2,2023,12,7,12,213,-2451,1608,2074,-430,1094,-1521,
1373,6,2,2023,12,7,12,223,-2408,2513,3021,-282,1040,-1234,
1374,6,2,2023,12,7,12,233,-1791,2968,3290,-563,982,-841,
1375,6,2,2023,12,7,12,243,-1134,2662,2485,-1156,1552,-460,
1376,6,2,2023,12,7,12,253,-914,2083,2017,-1569,1856,-146,
1377,6,2,2023,12,7,12,263,-825,1859,2468,-1611,1714,144,
1378,6,2,2023,12,7,12,273,-208,2231,2542,-1395,2061,341,
1379,6,2,2023,12,7,12,283,-980,2890,2710,-1825,2639,254,
1380,6,2,2023,12,7,12,293,203,2177,2641,-2218,2241,29,
1381,6,2,2023,12,7,12,303,1044,2810,3996,-1302,1354,153,
1382,6,2,2023,12,7,12,313,3858,1396,2479,-1208,1619,277,
1383,6,2,2023,12,7,12,323,4984,675,726,-1665,3422,-368,
1384,6,2,2023,12,7,12,333,-2369,1071,6794,-1165,6039,-1365,
1385,6,2,2023,12,7,12,343,-6387,3516,10589,-141,5048,-1273,
1386,6,2,2023,12,7,12,353,-3718,2926,8272,-1469,2926,-1270,
1387,6,2,2023,12,7,12,363,-536,859,4656,-1844,1925,-1357,
1388,6,2,2023,12,7,12,373,726,1442,2674,-672,1878,-1298,
1389,6,2,2023,12,7,12,383,281,1827,3259,-469,2539,-1066,
1390,6,2,2023,12,7,12,393,-1145,1347,4168,-861,2920,-1031,
1391,6,2,2023,12,7,12,403,-1506,1506,4477,-537,2652,-1034,
1392,6,2,2023,12,7,12,413,-998,3281,4866,-231,2322,-890,
1393,6,2,2023,12,7,12,423,-2013,4478,4081,-1170,2388,-788,
1394,6,2,2023,12,7,12,433,-1787,3249,3892,-1491,2165,-771,
1395,6,2,2023,12,7,12,443,-1468,1747,4430,-1497,1865,-863,
1396,6,2,2023,12,7,12,453,-1407,1643,4236,-1374,1494,-965,
1397,6,2,2023,12,7,12,463,-1110,2588,3535,-1151,1165,-888,
1398,6,2,2023,12,7,12,473,-975,2699,3448,-1117,1013,-894,
1399,6,2,2023,12,7,12,483,-1098,1883,3829,-1261,903,-974,
1400,6,2,2023,12,7,12,493,-975,1494,3823,-1292,771,-979,
1401,6,2,2023,12,7,12,503,-908,1719,3650,-1168,723,-962,
1402,6,2,2023,12,7,12,513,-1078,1809,3742,-1091,727,-961,
1403,6,2,2023,12,7,12,523,-1139,1598,3863,-1014,684,-899,
1404,6,2,2023,12,7,12,533,-932,1512,3578,-851,627,-794,
1405,6,2,2023,12,7,12,543,-918,1600,3570,-691,700,-736,
1406,6,2,2023,12,7,12,553,-1227,1348,3943,-548,830,-641,
1407,6,2,2023,12,7,12,563,-1120,1376,3786,-190,760,-428,
1408,6,2,2023,12,7,12,573,-1030,2060,3528,124,649,-351,
1409,6,2,2023,12,7,12,583,-1142,1912,3722,-6,640,-380,
1410,6,2,2023,12,7,12,593,-1202,1716,3679,-21,539,-305,
1411,6,2,2023,12,7,12,603,-1161,1962,3618,93,397,-251,
1412,6,2,2023,12,7,12,613,-1137,1836,3622,-3,309,-224,
1413,6,2,2023,12,7,12,623,-1106,1723,3641,-34,238,-201,
1414,6,2,2023,12,7,12,633,-1131,1725,3623,-71,207,-203,
1415,6,2,2023,12,7,12,643,-1087,1714,3618,-98,166,-208,
1416,6,2,2023,12,7,12,653,-1098,1673,3613,-139,148,-217,
1417,6,2,2023,12,7,12,663,-1101,1731,3582,-170,126,-225,
1418,6,2,2023,12,7,12,673,-1109,1692,3629,-235,119,-222,
1419,6,2,2023,12,7,12,683,-1144,1685,3610,-285,106,-216,
1420,6,2,2023,12,7,12,693,-1127,1670,3608,-305,81,-204,
1421,6,2,2023,12,7,12,703,-1143,1601,3608,-306,68,-197,
1422,6,2,2023,12,7,12,713,-1115,1590,3570,-268,49,-180,
1423,6,2,2023,12,7,12,723,-1037,1557,3605,-219,48,-188,
1424,6,2,2023,12,7,12,733,-1157,1469,3607,-94,8,-219,
1425,6,2,2023,12,7,12,743,-1233,1496,3658,31,22,-167,
1426,6,2,2023,12,7,12,753,-1044,1546,3564,149,-14,-146,
1427,6,2,2023,12,7,12,763,-1197,1658,3601,214,-17,-169,
1428,6,2,2023,12,7,12,773,-1143,1608,3588,176,-31,-174,
1429,6,2,2023,12,7,12,783,-1108,1648,3557,128,-36,-206,
1430,6,2,2023,12,7,12,793,-1221,1591,3603,93,-37,-215,
1431,6,2,2023,12,7,12,803,-1119,1618,3532,135,-70,-208,
1432,6,2,2023,12,7,12,813,-1149,1597,3550,109,-50,-215,
1433,6,2,2023,12,7,12,823,-1141,1571,3543,180,-65,-225,
1434,6,2,2023,12,7,12,833,-1079,1585,3532,180,-26,-241,
1435,6,2,2023,12,7,12,843,-1131,1542,3586,179,31,-237,
1436,6,2,2023,12,7,12,853,-1040,1662,3562,327,15,-268,
1437,6,2,2023,12,7,12,863,-1102,1637,3561,271,111,-269,
1438,6,2,2023,12,7,12,873,-1119,1691,3597,311,145,-283,
1439,6,2,2023,12,7,12,883,-1074,1557,3562,288,216,-283,
1440,6,2,2023,12,7,12,893,-1123,1580,3655,353,267,-301,
1441,6,2,2023,12,7,12,903,-1058,1745,3617,528,230,-392,
1442,6,2,2023,12,7,12,913,-1116,1786,3574,225,456,-343,
1443,6,2,2023,12,7,12,923,-1187,1709,3579,130,538,-371,
1444,6,2,2023,12,7,12,933,-1186,1784,3478,379,506,-420,
1445,6,2,2023,12,7,12,943,-1408,2139,3381,632,512,-521,
1446,6,2,2023,12,7,12,963,-1282,1735,3724,1200,620,-660,
1447,6,2,2023,12,7,12,973,-1245,1914,3330,1710,617,-813,
1448,6,2,2023,12,7,12,983,-1000,1992,3644,2233,626,-936,
1449,6,2,2023,12,7,12,993,-925,2285,3370,2507,773,-1125,
1450,6,2,2023,12,7,13,3,-778,1889,3484,2802,1203,-1515,
1451,6,2,2023,12,7,13,13,-559,1757,3664,3976,2242,-1914,
1452,6,2,2023,12,7,13,23,-1256,2128,3244,4386,3036,-2347,
1453,6,2,2023,12,7,13,33,-732,1370,3492,3448,2946,-3058,
1454,6,2,2023,12,7,13,43,357,1549,3983,3578,3524,-3723,
1455,6,2,2023,12,7,13,53,-162,3438,3733,3751,5142,-4013,
1456,6,2,2023,12,7,13,63,-1216,4050,4896,2469,5576,-4570,
1457,6,2,2023,12,7,13,73,-927,4340,3832,1104,5718,-5616,
1458,6,2,2023,12,7,13,83,-944,2397,3914,-183,6881,-6711,
1459,6,2,2023,12,7,13,93,-2200,1820,4428,1136,9344,-7425,
1460,6,2,2023,12,7,13,103,-3432,2783,4970,3329,12159,-8443,
1461,6,2,2023,12,7,13,113,-5305,4224,6385,4584,14099,-9249,
1462,6,2,2023,12,7,13,123,-4721,9769,9785,4624,14802,-9964,
1463,6,2,2023,12,7,13,133,-3995,11120,10126,894,13792,-9777,
1464,6,2,2023,12,7,13,143,-6413,8191,8609,-2493,12372,-9309,
1465,6,2,2023,12,7,13,153,-3385,4637,9415,-2926,9771,-7084,
1466,6,2,2023,12,7,13,163,2861,5082,8253,-495,6350,-4274,
1467,6,2,2023,12,7,13,173,91,12192,2380,2084,3357,-3283,
1468,6,2,2023,12,7,13,183,-2939,6659,4389,-1381,2545,-4173,
1469,6,2,2023,12,7,13,193,5711,7073,7084,970,-2872,73,
1470,6,2,2023,12,7,13,203,4387,8111,-237,252,1160,306,
1471,6,2,2023,12,7,13,213,-29,2284,544,-4854,1006,556,
1472,6,2,2023,12,7,13,223,2227,5224,5353,-1460,-3855,1366,
1473,6,2,2023,12,7,13,233,1416,866,2917,-4657,-1393,1392,
1474,6,2,2023,12,7,13,243,1161,-96,1540,-188,-2403,2538,
1475,6,2,2023,12,7,13,253,2443,4831,2839,1667,-5816,3023,
1476,6,2,2023,12,7,13,263,1632,3521,3247,-1569,-4614,2844,
1477,6,2,2023,12,7,13,273,53,1332,2237,-2162,-3760,3438,
1478,6,2,2023,12,7,13,283,272,1752,2475,-1069,-6485,3851,
1479,6,2,2023,12,7,13,293,1072,1767,3187,-662,-7692,4513,
1480,6,2,2023,12,7,13,303,324,1953,2291,-213,-6164,4789,
1481,6,2,2023,12,7,13,313,-544,2692,1476,105,-6472,4979,
1482,6,2,2023,12,7,13,323,-224,2870,2588,-48,-8218,5462,
1483,6,2,2023,12,7,13,333,-297,3180,3498,-13,-7662,6005,
1484,6,2,2023,12,7,13,343,-1438,3343,2844,-85,-6254,6509,
1485,6,2,2023,12,7,13,353,-2019,2715,2996,-345,-7106,7091,
1486,6,2,2023,12,7,13,363,-1879,2188,4439,-253,-8164,7329,
1487,6,2,2023,12,7,13,373,-2154,2858,4875,194,-7350,7207,
1488,6,2,2023,12,7,13,383,-2751,2873,4481,107,-6942,7244,
1489,6,2,2023,12,7,13,393,-3012,2252,5105,58,-8057,7143,
1490,6,2,2023,12,7,13,403,-2656,2376,5963,447,-8170,6774,
1491,6,2,2023,12,7,13,413,-3258,2616,5683,691,-7602,6374,
1492,6,2,2023,12,7,13,423,-3411,3480,7047,1209,-8192,6056,
1493,6,2,2023,12,7,13,433,-4004,4552,8001,1514,-8116,5963,
1494,6,2,2023,12,7,13,443,-4384,4943,7669,1100,-8325,5958,
1495,6,2,2023,12,7,13,453,-4310,5026,7332,648,-8508,5875,
1496,6,2,2023,12,7,13,463,-4458,5095,6941,356,-8418,5739,
1497,6,2,2023,12,7,13,473,-4877,5339,6228,220,-8047,5589,
1498,6,2,2023,12,7,13,483,-5401,5278,4380,-1,-7239,5439,
1499,6,2,2023,12,7,13,493,-5059,4533,1543,-634,-6209,5195,
1500,6,2,2023,12,7,13,503,-7846,1471,520,-2223,-4926,4264,
1501,6,2,2023,12,7,13,513,-8578,1285,1310,765,-4618,3575,
1502,6,2,2023,12,7,13,523,-10932,2920,4845,3288,-5317,4037,
1503,6,2,2023,12,7,13,533,-10437,2316,3304,3229,-4075,4073,
1504,6,2,2023,12,7,13,543,-11688,-234,-776,2189,-1608,3715,
1505,6,2,2023,12,7,13,553,-12433,-3078,-2209,903,-2492,2686,
1506,6,2,2023,12,7,13,563,-11823,-3930,-1068,577,-3177,1025,
1507,6,2,2023,12,7,13,573,-10048,-2565,-661,607,-858,-768,
1508,6,2,2023,12,7,13,583,-9440,495,-613,-17,1316,-1699,
1509,6,2,2023,12,7,13,593,-8095,2442,408,-1438,1298,-2070,
1510,6,2,2023,12,7,13,603,-6550,3116,1780,-3366,1385,-2131,
1511,6,2,2023,12,7,13,613,-2690,2603,2685,-4327,2703,-1567,
1512,6,2,2023,12,7,13,623,1947,1512,2308,-2950,1844,-956,
1513,6,2,2023,12,7,13,633,15394,-2204,2770,-2426,2556,-1150,
1514,6,2,2023,12,7,13,643,780,985,1272,-1296,9454,-3236,
1515,6,2,2023,12,7,13,653,-6197,370,4938,-873,9971,-5322,
1516,6,2,2023,12,7,13,663,-6646,3191,12692,-1251,6166,-3911,
1517,6,2,2023,12,7,13,673,-4167,3536,10729,-1521,6211,-3194,
1518,6,2,2023,12,7,13,683,-588,3978,5324,-2395,5254,-3289,
1519,6,2,2023,12,7,13,693,-2681,5707,4852,-2620,5239,-2199,
1520,6,2,2023,12,7,13,703,-4304,3936,5261,-3779,4856,-2669,
1521,6,2,2023,12,7,13,713,-4314,3336,6078,-3159,3819,-2278,
1522,6,2,2023,12,7,13,723,-1893,1384,4483,-2569,2914,-1732,
1523,6,2,2023,12,7,13,733,-509,2664,3637,-1377,2244,-1343,
1524,6,2,2023,12,7,13,743,-1605,3396,3723,-1465,1955,-1568,
1525,6,2,2023,12,7,13,753,-1526,1887,4129,-1724,1564,-1608,
1526,6,2,2023,12,7,13,763,-1114,1450,4199,-1407,1180,-1234,
1527,6,2,2023,12,7,13,773,-1320,1947,3903,-1234,913,-1097,
1528,6,2,2023,12,7,13,783,-1270,1507,4092,-1057,690,-927,
1529,6,2,2023,12,7,13,793,-1035,1098,3977,-717,532,-685,
1530,6,2,2023,12,7,13,803,-1124,1988,3653,-242,492,-558,
1531,6,2,2023,12,7,13,823,-1100,2094,3492,-35,444,-419,
1532,6,2,2023,12,7,13,833,-1079,2190,3424,-119,387,-436,
1533,6,2,2023,12,7,13,843,-1088,1949,3552,-280,366,-426,
1534,6,2,2023,12,7,13,853,-1120,1917,3575,-276,268,-342,
1535,6,2,2023,12,7,13,863,-1100,1985,3542,-305,180,-284,
1536,6,2,2023,12,7,13,873,-1063,1771,3600,-451,186,-291,
1537,6,2,2023,12,7,13,883,-1121,1759,3569,-388,143,-253,
1538,6,2,2023,12,7,13,893,-1076,1825,3626,-333,142,-199,
1539,6,2,2023,12,7,13,903,-1099,1735,3498,-301,115,-117,
1540,6,2,2023,12,7,13,913,-1084,1705,3530,-228,121,-129,
1541,6,2,2023,12,7,13,923,-1039,1649,3493,-157,132,-148,
1542,6,2,2023,12,7,13,933,-1106,1610,3549,-18,136,-141,
1543,6,2,2023,12,7,13,943,-1125,1529,3603,77,114,-150,
1544,6,2,2023,12,7,13,953,-1107,1734,3541,245,111,-201,
1545,6,2,2023,12,7,13,963,-1220,1640,3563,321,110,-172,
1546,6,2,2023,12,7,13,973,-1135,1621,3524,321,115,-261,
1547,6,2,2023,12,7,13,983,-1125,1805,3536,467,62,-364,
1548,6,2,2023,12,7,13,993,-1225,1853,3464,521,44,-326,
1549,6,2,2023,12,7,14,3,-1199,1785,3434,499,49,-321,
1550,6,2,2023,12,7,14,13,-1193,1632,3486,462,118,-339,
1551,6,2,2023,12,7,14,23,-1239,1672,3507,544,153,-434,
1552,6,2,2023,12,7,14,33,-1198,1948,3675,588,139,-449,
1553,6,2,2023,12,7,14,43,-1168,1817,3426,84,292,-379,
1554,6,2,2023,12,7,14,53,-1243,1810,3529,-285,522,-312,
1555,6,2,2023,12,7,14,63,-1058,1669,3482,-66,417,-307,
1556,6,2,2023,12,7,14,73,-1281,1824,3480,102,465,-455,
1557,6,2,2023,12,7,14,83,-1144,1835,3499,111,462,-508,
1558,6,2,2023,12,7,14,93,-1080,1900,3393,394,406,-570,
1559,6,2,2023,12,7,14,103,-1266,1834,3578,386,544,-622,
1560,6,2,2023,12,7,14,113,-1341,1763,3509,546,522,-723,
1561,6,2,2023,12,7,14,123,-1078,1827,3626,989,587,-638,
1562,6,2,2023,12,7,14,133,-1122,1717,3460,1388,804,-690,
1563,6,2,2023,12,7,14,143,-1247,1698,3657,1481,1058,-794,
1564,6,2,2023,12,7,14,153,-1083,1623,3566,1974,1102,-867,
1565,6,2,2023,12,7,14,163,-1165,1853,3572,2613,1398,-1050,
1566,6,2,2023,12,7,14,173,-1212,1954,3449,3031,1629,-1323,
1567,6,2,2023,12,7,14,183,-1157,1642,3575,3368,1843,-1595,
1568,6,2,2023,12,7,14,193,-1091,2026,3666,4087,1895,-1896,
1569,6,2,2023,12,7,14,203,-1020,1951,3495,3799,1929,-2292,
1570,6,2,2023,12,7,14,213,-498,1485,3806,2795,2135,-2901,
1571,6,2,2023,12,7,14,223,-146,2141,3790,2964,2411,-3434,
1572,6,2,2023,12,7,14,233,-285,4203,3426,2149,3036,-4031,
1573,6,2,2023,12,7,14,243,14,5011,4425,-912,3422,-4865,
1574,6,2,2023,12,7,14,253,978,4627,5081,-3172,6354,-5487,
1575,6,2,2023,12,7,14,263,1322,2882,3782,-4392,8899,-5456,
1576,6,2,2023,12,7,14,273,-1971,-275,2621,-2364,10694,-5828,
1577,6,2,2023,12,7,14,283,-5840,311,3898,3422,13644,-7141,
1578,6,2,2023,12,7,14,293,-6515,2620,4683,7932,16262,-9341,
1579,6,2,2023,12,7,14,303,-7240,10333,9066,11322,17882,-10968,
1580,6,2,2023,12,7,14,313,-6058,17264,15149,9521,16992,-12576,
1581,6,2,2023,12,7,14,323,-5918,12063,12845,237,13298,-11238,
1582,6,2,2023,12,7,14,333,-1819,3586,9927,-2487,8708,-7686,
1583,6,2,2023,12,7,14,343,5237,9577,6418,3257,3816,-4764,
1584,6,2,2023,12,7,14,353,-2059,18321,2353,3856,2149,-2275,
1585,6,2,2023,12,7,14,363,2394,7114,4792,-2569,-290,-3651,
1586,6,2,2023,12,7,14,373,6930,9531,4684,1712,-2582,888,
1587,6,2,2023,12,7,14,383,2393,6339,489,-2073,206,748,
1588,6,2,2023,12,7,14,393,3734,4782,3784,-2869,-3596,2267,
1589,6,2,2023,12,7,14,403,3308,5021,3832,-2660,-2583,2724,
1590,6,2,2023,12,7,14,413,232,3636,1734,-3645,-2132,3375,
1591,6,2,2023,12,7,14,423,1209,545,3119,-2901,-5906,2861,
1592,6,2,2023,12,7,14,433,2746,579,4199,-141,-7213,4101,
1593,6,2,2023,12,7,14,443,1503,3850,2569,1073,-6511,4842,
1594,6,2,2023,12,7,14,453,393,1889,2123,-1509,-7286,4332,
1595,6,2,2023,12,7,14,463,70,1902,3547,-1158,-8535,4521,
1596,6,2,2023,12,7,14,473,33,1168,3925,-1036,-8832,5040,
1597,6,2,2023,12,7,14,483,-464,2062,3548,118,-8748,5786,
1598,6,2,2023,12,7,14,493,-944,2737,3380,195,-9255,6068,
1599,6,2,2023,12,7,14,503,-1051,2976,3699,-53,-9742,6430,
1600,6,2,2023,12,7,14,513,-1356,2751,3695,-354,-9450,6912,
1601,6,2,2023,12,7,14,523,-1992,1740,3322,-608,-8856,7361,
1602,6,2,2023,12,7,14,533,-2918,1278,3744,-172,-8959,7410,
1603,6,2,2023,12,7,14,543,-3395,1880,5403,738,-9205,7247,
1604,6,2,2023,12,7,14,553,-3570,1554,5215,986,-8711,6964,
1605,6,2,2023,12,7,14,563,-3183,2716,5837,1475,-8772,6155,
1606,6,2,2023,12,7,14,573,-3039,4962,6310,1708,-8697,5602,
1607,6,2,2023,12,7,14,583,-3832,6104,7394,1556,-8380,5577,
1608,6,2,2023,12,7,14,593,-4724,7690,8440,2305,-8260,6496,
1609,6,2,2023,12,7,14,603,-4853,9398,7437,2416,-8419,7767,
1610,6,2,2023,12,7,14,613,-5280,9004,5902,1281,-7934,8863,
1611,6,2,2023,12,7,14,623,-6632,4788,5411,-68,-6643,9628,
1612,6,2,2023,12,7,14,633,-8952,1869,6160,221,-5967,10064,
1613,6,2,2023,12,7,14,643,-10433,1944,6916,980,-6179,9276,
1614,6,2,2023,12,7,14,653,-11163,2072,6359,615,-6070,7676,
1615,6,2,2023,12,7,14,663,-10861,1590,3523,-332,-5534,6242,
1616,6,2,2023,12,7,14,683,-11197,-67,-2321,-1184,-3479,3957,
1617,6,2,2023,12,7,14,693,-12302,-1062,-2734,-366,-3023,3478,
1618,6,2,2023,12,7,14,703,-13346,-1497,-2643,803,-1781,2659,
1619,6,2,2023,12,7,14,713,-13196,-2005,-3023,1365,-229,1585,
1620,6,2,2023,12,7,14,723,-11318,-84,-2145,1839,443,478,
1621,6,2,2023,12,7,14,733,-10167,2557,668,465,971,-425,
1622,6,2,2023,12,7,14,743,-8277,1790,1560,-2126,2896,-1026,
1623,6,2,2023,12,7,14,753,-4608,1909,2050,-2469,4573,-572,
1624,6,2,2023,12,7,14,763,-767,3068,5270,-2006,2464,186,
1625,6,2,2023,12,7,14,773,13751,1458,7918,-2167,1895,-622,
1626,6,2,2023,12,7,14,783,5943,73,1420,-3753,6340,-2669,
1627,6,2,2023,12,7,14,793,-2793,-3138,1106,-1481,9447,-4298,
1628,6,2,2023,12,7,14,803,-6969,723,11148,381,5960,-3531,
1629,6,2,2023,12,7,14,813,-5442,5058,12570,-99,5273,-2967,
1630,6,2,2023,12,7,14,823,233,1607,5146,-1645,4597,-3787,
1631,6,2,2023,12,7,14,833,32,5467,2082,-108,4394,-2691,
1632,6,2,2023,12,7,14,843,-1272,7028,4820,-967,4728,-2205,
1633,6,2,2023,12,7,14,853,-3208,2828,6766,-3007,4786,-1959,
1634,6,2,2023,12,7,14,863,-3637,772,6694,-2437,3885,-1463,
1635,6,2,2023,12,7,14,873,-2051,2898,4817,-1095,2780,-1223,
1636,6,2,2023,12,7,14,883,-473,4658,2380,-901,2386,-1162,
1637,6,2,2023,12,7,14,893,-970,3815,3473,-1066,2267,-1199,
1638,6,2,2023,12,7,14,903,-1468,1407,4502,-1430,2075,-1213,
1639,6,2,2023,12,7,14,913,-1011,1339,4303,-855,1655,-1114,
1640,6,2,2023,12,7,14,923,-812,2241,3712,-488,1404,-1003,
1641,6,2,2023,12,7,14,933,-892,2299,3667,-423,1256,-981,
1642,6,2,2023,12,7,14,943,-961,1864,3969,-370,1177,-884,
1643,6,2,2023,12,7,14,953,-937,1870,3664,-112,1047,-793,
1644,6,2,2023,12,7,14,963,-799,2062,3486,244,999,-717,
1645,6,2,2023,12,7,14,973,-759,1922,3384,387,1081,-734,
1646,6,2,2023,12,7,14,983,-941,1873,3580,538,1248,-838,
1647,6,2,2023,12,7,14,993,-1019,2093,3615,777,1203,-933,
1648,6,2,2023,12,7,15,3,-1009,2241,3710,911,989,-962,
1649,6,2,2023,12,7,15,13,-931,2048,3574,740,832,-985,
1650,6,2,2023,12,7,15,23,-982,2109,3508,909,716,-909,
1651,6,2,2023,12,7,15,33,-977,2329,3415,1002,459,-839,
1652,6,2,2023,12,7,15,43,-991,2546,3426,837,310,-716,
1653,6,2,2023,12,7,15,53,-858,2566,3318,411,274,-634,
1654,6,2,2023,12,7,15,63,-913,2296,3285,71,293,-475,
1655,6,2,2023,12,7,15,73,-1088,2086,3568,-117,388,-401,
1656,6,2,2023,12,7,15,83,-1041,2062,3430,-33,323,-387,
1657,6,2,2023,12,7,15,93,-953,2107,3291,30,136,-417,
1658,6,2,2023,12,7,15,103,-1013,2069,3414,2,225,-417,
1659,6,2,2023,12,7,15,113,-1055,2139,3345,79,209,-397,
1660,6,2,2023,12,7,15,123,-1078,2195,3335,-22,110,-438,
1661,6,2,2023,12,7,15,133,-1050,2056,3457,-191,72,-438,
1662,6,2,2023,12,7,15,143,-1013,2044,3357,-80,52,-426,
1663,6,2,2023,12,7,15,153,-1089,2124,3387,-137,66,-445,
1664,6,2,2023,12,7,15,163,-1089,2108,3444,-168,19,-412,
1665,6,2,2023,12,7,15,173,-1042,1995,3344,-96,22,-414,
1666,6,2,2023,12,7,15,183,-1099,2127,3454,-174,60,-433,
1667,6,2,2023,12,7,15,193,-1049,2064,3296,-276,43,-474,
1668,6,2,2023,12,7,15,203,-1202,2259,3356,-344,157,-476,
1669,6,2,2023,12,7,15,213,-1015,2010,3252,-456,-21,-371,
1670,6,2,2023,12,7,15,223,-1122,2047,3465,-514,175,-399,
1671,6,2,2023,12,7,15,233,-1044,2084,3358,-430,160,-366,
1672,6,2,2023,12,7,15,243,-1058,2084,3370,-572,189,-420,
1673,6,2,2023,12,7,15,253,-1118,2083,3399,-608,298,-462,
1674,6,2,2023,12,7,15,263,-1016,2012,3405,-571,295,-469,
1675,6,2,2023,12,7,15,273,-1155,2095,3459,-615,441,-558,
1676,6,2,2023,12,7,15,283,-1147,2153,3361,-409,420,-550,
1677,6,2,2023,12,7,15,293,-1112,2076,3413,-405,438,-570,
1678,6,2,2023,12,7,15,303,-1141,1931,3445,-154,626,-601,
1679,6,2,2023,12,7,15,313,-1162,2120,3479,132,680,-653,
1680,6,2,2023,12,7,15,323,-1081,1932,3469,453,905,-674,
1681,6,2,2023,12,7,15,333,-1106,1916,3414,1049,1094,-702,
1682,6,2,2023,12,7,15,343,-1128,2391,3486,1753,1459,-980,
1683,6,2,2023,12,7,15,353,-792,1980,3208,2100,1500,-1191,
1684,6,2,2023,12,7,15,363,-924,2072,3620,2834,2055,-1448,
1685,6,2,2023,12,7,15,373,-1053,2070,3522,3503,2474,-1802,
1686,6,2,2023,12,7,15,383,-648,1461,3172,3981,2344,-2166,
1687,6,2,2023,12,7,15,393,-754,1738,4043,4371,3127,-2737,
1688,6,2,2023,12,7,15,403,-358,1343,4039,3447,2843,-3358,
1689,6,2,2023,12,7,15,413,97,2404,3937,3038,2645,-3808,
1690,6,2,2023,12,7,15,423,-165,5106,3479,2397,3801,-4426,
1691,6,2,2023,12,7,15,433,-12,4783,5176,-156,5288,-5305,
1692,6,2,2023,12,7,15,443,1558,2920,4638,-1317,8677,-6016,
1693,6,2,2023,12,7,15,453,-2115,114,2062,-108,10269,-6394,
1694,6,2,2023,12,7,15,463,-5721,1826,3353,5950,12643,-8091,
1695,6,2,2023,12,7,15,473,-5054,4487,4583,9721,15172,-10120,
1696,6,2,2023,12,7,15,483,-6789,11014,6925,11317,17104,-11891,
1697,6,2,2023,12,7,15,493,-6743,17426,13711,8975,17155,-13583,
1698,6,2,2023,12,7,15,503,-6501,12825,11916,1459,13994,-11901,
1699,6,2,2023,12,7,15,513,-402,5796,10970,706,8620,-7727,
1700,6,2,2023,12,7,15,523,7081,10986,6245,3774,4299,-4567,
1701,6,2,2023,12,7,15,543,429,13543,6133,-2990,1528,-1569,
1702,6,2,2023,12,7,15,553,7093,4008,7727,-5727,-1846,1132,
1703,6,2,2023,12,7,15,563,4101,5465,649,-806,758,2818,
1704,6,2,2023,12,7,15,573,3507,3159,3036,-4735,-3111,2806,
1705,6,2,2023,12,7,15,583,3803,1894,5397,-4896,-4232,2793,
1706,6,2,2023,12,7,15,593,1467,3348,3722,-3323,-2854,2802,
1707,6,2,2023,12,7,15,603,676,1010,3565,-4023,-5063,2450,
1708,6,2,2023,12,7,15,613,2129,-399,4689,-2027,-8683,3057,
1709,6,2,2023,12,7,15,623,2575,4054,4285,648,-8820,3792,
1710,6,2,2023,12,7,15,633,618,2485,1353,-1792,-7332,3791,
1711,6,2,2023,12,7,15,643,99,1576,1560,-1873,-9404,4110,
1712,6,2,2023,12,7,15,653,988,2124,3586,-1097,-11230,4734,
1713,6,2,2023,12,7,15,663,386,2404,3720,-677,-9561,5381,
1714,6,2,2023,12,7,15,673,-1084,3603,2626,-130,-8606,5909,
1715,6,2,2023,12,7,15,683,-1168,3468,3154,-610,-10290,6485,
1716,6,2,2023,12,7,15,693,-1008,3275,4661,-610,-10694,7110,
1717,6,2,2023,12,7,15,703,-1939,3751,4526,-267,-8984,7588,
1718,6,2,2023,12,7,15,713,-2788,3169,3906,-505,-8829,7932,
1719,6,2,2023,12,7,15,723,-3066,2732,4854,-293,-10020,8048,
1720,6,2,2023,12,7,15,733,-2907,2917,5572,285,-9547,7799,
1721,6,2,2023,12,7,15,743,-3332,3720,5108,731,-8348,7358,
1722,6,2,2023,12,7,15,753,-3822,5447,6299,1208,-8710,7109,
1723,6,2,2023,12,7,15,763,-4385,8098,9448,1884,-8879,7378,
1724,6,2,2023,12,7,15,773,-5991,11041,9031,2073,-8484,8396,
1725,6,2,2023,12,7,15,783,-7384,6928,7851,-71,-8373,9272,
1726,6,2,2023,12,7,15,793,-9857,2020,7819,-343,-7942,10018,
1727,6,2,2023,12,7,15,803,-10182,4038,6493,1170,-7514,9375,
1728,6,2,2023,12,7,15,813,-14291,2783,5843,-1957,-6508,7234,
1729,6,2,2023,12,7,15,823,-13963,200,3231,-2435,-6036,5576,
1730,6,2,2023,12,7,15,833,-13170,457,-1013,-1521,-5641,4457,
1731,6,2,2023,12,7,15,843,-12609,25,-4102,-1343,-4261,3620,
1732,6,2,2023,12,7,15,853,-13134,-452,-5603,-703,-2279,3115,
1733,6,2,2023,12,7,15,863,-14932,204,-3812,194,-1421,2945,
1734,6,2,2023,12,7,15,873,-15322,621,-2131,-331,162,2455,
1735,6,2,2023,12,7,15,883,-15549,-866,-2685,-2057,3478,1110,
1736,6,2,2023,12,7,15,893,-13926,-3550,-2749,-2888,4765,-503,
1737,6,2,2023,12,7,15,903,7272,-3208,2803,511,971,-786,
1738,6,2,2023,12,7,15,913,5940,5315,12587,1529,2659,-2602,
1739,6,2,2023,12,7,15,923,-1791,2937,5302,-1779,6715,-4510,
1740,6,2,2023,12,7,15,933,-1613,3304,3027,-909,6888,-4784,
1741,6,2,2023,12,7,15,943,-5288,7356,10393,529,6072,-3225,
1742,6,2,2023,12,7,15,953,-2641,1295,8875,-1684,5497,-3021,
1743,6,2,2023,12,7,15,963,-942,-242,5401,-1069,4566,-2742,
1744,6,2,2023,12,7,15,973,-51,5205,3845,251,3853,-2251,
1745,6,2,2023,12,7,15,983,-1998,7938,4683,-1231,4188,-1486,
1746,6,2,2023,12,7,15,993,-3242,3488,4770,-2931,4168,-1281,
1747,6,2,2023,12,7,16,3,-1897,1385,5131,-1632,3327,-1131,
1748,6,2,2023,12,7,16,13,-942,2024,4217,-880,2877,-1151,
1749,6,2,2023,12,7,16,23,-1548,3245,3954,-635,2575,-1478,
1750,6,2,2023,12,7,16,33,-967,3567,3112,-309,2188,-1564,
1751,6,2,2023,12,7,16,43,-922,2641,3399,-15,2084,-1430,
1752,6,2,2023,12,7,16,53,-759,2085,3872,510,1808,-1494,
1753,6,2,2023,12,7,16,63,-827,1602,3417,398,1826,-1492,
1754,6,2,2023,12,7,16,73,-740,2357,3187,1008,1798,-1775,
1755,6,2,2023,12,7,16,83,-734,2760,3638,1204,1935,-1688,
1756,6,2,2023,12,7,16,93,-964,2460,3864,863,2008,-1266,
1757,6,2,2023,12,7,16,103,-979,2119,3865,852,1806,-928,
1758,6,2,2023,12,7,16,113,-1126,2322,4103,1129,1590,-940,
1759,6,2,2023,12,7,16,123,-1307,2806,3946,889,1329,-1027,
1760,6,2,2023,12,7,16,133,-1101,2699,3299,553,803,-765,
1761,6,2,2023,12,7,16,143,-860,2328,3172,323,173,-336,
1762,6,2,2023,12,7,16,153,-808,2281,3264,87,461,-452,
1763,6,2,2023,12,7,16,163,-1068,2462,3203,58,513,-518,
1764,6,2,2023,12,7,16,173,-996,2353,3287,49,133,-496,
1765,6,2,2023,12,7,16,183,-992,2306,3380,-30,255,-509,
1766,6,2,2023,12,7,16,193,-1097,2288,3316,56,304,-420,
1767,6,2,2023,12,7,16,203,-990,2359,3219,36,142,-433,
1768,6,2,2023,12,7,16,213,-1016,2181,3263,-76,169,-480,
1769,6,2,2023,12,7,16,223,-1110,2224,3413,-120,215,-432,
1770,6,2,2023,12,7,16,233,-1073,2196,3327,-33,221,-327,
1771,6,2,2023,12,7,16,243,-1010,2123,3192,-1,165,-347,
1772,6,2,2023,12,7,16,253,-1068,2134,3486,-106,202,-347,
1773,6,2,2023,12,7,16,263,-992,2229,3267,36,178,-318,
1774,6,2,2023,12,7,16,273,-1061,2201,3142,53,226,-346,
1775,6,2,2023,12,7,16,283,-1053,2243,3386,-166,124,-385,
1776,6,2,2023,12,7,16,293,-965,2501,2983,-91,102,-468,
1777,6,2,2023,12,7,16,303,-1110,2461,2952,-260,103,-565,
1778,6,2,2023,12,7,16,313,-1118,2330,3381,-600,21,-595,
1779,6,2,2023,12,7,16,323,-952,2556,2959,-460,-30,-596,
1780,6,2,2023,12,7,16,333,-1120,2352,2880,-551,26,-771,
1781,6,2,2023,12,7,16,343,-1377,2036,3832,-979,88,-730,
1782,6,2,2023,12,7,16,353,-1010,2129,3355,-516,-12,-477,
1783,6,2,2023,12,7,16,363,-1158,2256,3196,-566,215,-532,
1784,6,2,2023,12,7,16,373,-1072,2076,3521,-613,119,-496,
1785,6,2,2023,12,7,16,383,-1114,2269,3306,-359,285,-520,
1786,6,2,2023,12,7,16,403,-1197,2268,3368,-364,453,-606,
1787,6,2,2023,12,7,16,413,-1054,2191,3259,-159,551,-605,
1788,6,2,2023,12,7,16,423,-1111,2251,3331,8,795,-698,
1789,6,2,2023,12,7,16,433,-1097,2127,3385,187,895,-761,
1790,6,2,2023,12,7,16,443,-983,1942,3303,473,1108,-808,
1791,6,2,2023,12,7,16,453,-1103,2361,3316,1240,1540,-917,
1792,6,2,2023,12,7,16,463,-1137,2399,3162,1678,1773,-1199,
1793,6,2,2023,12,7,16,473,-1050,2356,3405,2028,1812,-1434,
1794,6,2,2023,12,7,16,483,-1054,2205,3219,2481,1870,-1754,
1795,6,2,2023,12,7,16,493,-872,2252,3142,2965,2177,-2132,
1796,6,2,2023,12,7,16,503,-824,1749,3967,2071,2451,-2685,
1797,6,2,2023,12,7,16,513,-370,1265,4170,1791,2145,-3155,
1798,6,2,2023,12,7,16,523,23,2515,3535,2194,2462,-3690,
1799,6,2,2023,12,7,16,533,-13,4815,3524,1142,2986,-4464,
1800,6,2,2023,12,7,16,543,384,4694,5334,-1183,4864,-5314,
1801,6,2,2023,12,7,16,553,1661,4429,4593,-3008,8293,-6025,
1802,6,2,2023,12,7,16,563,168,1758,2808,-4237,9614,-6105,
1803,6,2,2023,12,7,16,573,-3722,-80,2358,-568,11788,-7014,
1804,6,2,2023,12,7,16,583,-6277,1494,3681,5435,14816,-9502,
1805,6,2,2023,12,7,16,593,-6924,2994,4450,9654,17297,-12251,
1806,6,2,2023,12,7,16,603,-8827,9107,8027,13544,18832,-13871,
1807,6,2,2023,12,7,16,613,-8428,15759,12846,12792,18592,-15158,
1808,6,2,2023,12,7,16,623,-7824,12837,12640,6964,16569,-15318,
1809,6,2,2023,12,7,16,633,-3523,10455,13065,2946,13059,-13287,
1810,6,2,2023,12,7,16,643,3799,12528,7200,3538,7564,-7536,
1811,6,2,2023,12,7,16,653,-1878,20271,600,3654,3588,-8407,
1812,6,2,2023,12,7,16,663,-4431,10910,12695,-6236,-2377,-3301,
1813,6,2,2023,12,7,16,673,6816,8117,7049,-1671,-7158,3387,
1814,6,2,2023,12,7,16,683,4195,9018,-6122,-1469,-849,1731,
1815,6,2,2023,12,7,16,693,1631,3589,1025,-8121,-4668,1864,
1816,6,2,2023,12,7,16,703,3818,-244,5199,-8492,-7730,3030,
1817,6,2,2023,12,7,16,713,2131,1486,2350,-2567,-2534,3481,
1818,6,2,2023,12,7,16,723,290,2580,816,-770,-4261,3595,
1819,6,2,2023,12,7,16,733,1924,2408,3595,-500,-9627,4244,
1820,6,2,2023,12,7,16,743,1870,3158,4290,-364,-8985,4973,
1821,6,2,2023,12,7,16,753,-413,3157,2668,43,-6867,5427,
1822,6,2,2023,12,7,16,763,-593,2258,1931,-754,-9469,5893,
1823,6,2,2023,12,7,16,773,127,1601,3361,-71,-11225,6868,
1824,6,2,2023,12,7,16,783,-492,1422,3262,537,-9713,7345,
1825,6,2,2023,12,7,16,793,-1611,2156,2215,902,-9232,7352,
1826,6,2,2023,12,7,16,803,-1695,3434,3171,989,-10985,7420,
1827,6,2,2023,12,7,16,813,-1560,3804,4757,255,-11014,7598,
1828,6,2,2023,12,7,16,823,-2295,3053,4292,-414,-9072,7992,
1829,6,2,2023,12,7,16,833,-3083,3272,3627,-135,-8941,8369,
1830,6,2,2023,12,7,16,843,-3306,3686,5163,85,-10183,8650,
1831,6,2,2023,12,7,16,853,-3374,3959,6740,156,-9654,8978,
1832,6,2,2023,12,7,16,863,-4384,3944,6535,323,-8196,9236,
1833,6,2,2023,12,7,16,873,-5117,3847,6405,512,-8568,9268,
1834,6,2,2023,12,7,16,883,-5128,3312,8345,527,-9607,9023,
1835,6,2,2023,12,7,16,893,-6470,4755,9397,1509,-8744,8637,
1836,6,2,2023,12,7,16,903,-8098,6037,9210,1632,-8630,8277,
1837,6,2,2023,12,7,16,913,-9077,6101,9225,1258,-9158,8392,
1838,6,2,2023,12,7,16,923,-10409,6647,7244,963,-7889,8693,
1839,6,2,2023,12,7,16,933,-11266,5711,3206,-526,-6271,8755,
1840,6,2,2023,12,7,16,943,-14801,2736,895,-2946,-5749,8152,
1841,6,2,2023,12,7,16,953,-14593,-1219,-1583,-3274,-4710,6611,
1842,6,2,2023,12,7,16,963,-13618,-2075,-4887,-1281,-3657,5801,
1843,6,2,2023,12,7,16,973,-13745,-1847,-5363,529,-3317,4610,
1844,6,2,2023,12,7,16,983,-13760,-2909,-3566,1553,-2488,3930,
1845,6,2,2023,12,7,16,993,-14629,-2802,-1911,2566,-258,3301,
1846,6,2,2023,12,7,17,3,-14093,-458,-1417,2505,1819,1321,
1847,6,2,2023,12,7,17,13,-12317,1433,263,215,1614,-610,
1848,6,2,2023,12,7,17,23,-9099,135,1642,-2885,1974,-1788,
1849,6,2,2023,12,7,17,33,1173,66,2511,-2339,2576,-2047,
1850,6,2,2023,12,7,17,43,13362,250,5901,-1296,2244,-2041,
1851,6,2,2023,12,7,17,53,1259,1444,3287,-455,8375,-2923,
1852,6,2,2023,12,7,17,63,-4850,3196,3166,-115,9272,-4650,
1853,6,2,2023,12,7,17,73,-4639,5093,9878,-1899,6095,-4746,
1854,6,2,2023,12,7,17,83,-3761,3677,11204,-3214,6754,-3955,
1855,6,2,2023,12,7,17,93,-3062,-162,8992,-4167,5950,-3981,
1856,6,2,2023,12,7,17,103,-3445,3106,6110,-3386,5223,-3263,
1857,6,2,2023,12,7,17,113,-4583,7521,3829,-2685,4592,-2951,
1858,6,2,2023,12,7,17,123,-2856,6403,3779,-3364,4023,-3423,
1859,6,2,2023,12,7,17,133,-1040,610,4684,-3872,3889,-2123,
1860,6,2,2023,12,7,17,143,-1253,1446,5078,-2237,2815,-1957,
1861,6,2,2023,12,7,17,153,-1694,3613,4323,-2050,2223,-2247,
1862,6,2,2023,12,7,17,163,-1938,3763,3644,-2113,2109,-1791,
1863,6,2,2023,12,7,17,173,-1693,315,4075,-2908,467,-1099,
1864,6,2,2023,12,7,17,183,-932,842,4945,-1392,-764,-446,
1865,6,2,2023,12,7,17,193,-587,2757,3630,-497,716,-274,
1866,6,2,2023,12,7,17,203,-1641,1443,3196,-1319,1119,-318,
1867,6,2,2023,12,7,17,213,-757,888,3746,-1036,-1151,-152,
1868,6,2,2023,12,7,17,223,-410,2105,4452,-364,-437,-74,
1869,6,2,2023,12,7,17,233,-980,2016,3046,-638,1348,-162,
1870,6,2,2023,12,7,17,243,-1569,1448,3182,-835,244,-99,
1871,6,2,2023,12,7,17,263,-901,2294,3535,-173,621,-142,
1872,6,2,2023,12,7,17,273,-1438,1914,3012,-625,365,-194,
1873,6,2,2023,12,7,17,283,-754,1236,4080,-606,-887,-79,
1874,6,2,2023,12,7,17,293,-958,1722,3618,-224,239,-82,
1875,6,2,2023,12,7,17,303,-906,1634,3081,-361,19,-128,
1876,6,2,2023,12,7,17,313,-520,1794,4149,-285,-224,-114,
1877,6,2,2023,12,7,17,323,-894,1647,3313,-697,295,-257,
1878,6,2,2023,12,7,17,333,-1363,694,3784,-710,450,-154,
1879,6,2,2023,12,7,17,343,-937,1658,3670,214,55,-190,
1880,6,2,2023,12,7,17,353,-652,1893,3537,48,56,-174,
1881,6,2,2023,12,7,17,363,-1016,1497,3545,-477,340,-316,
1882,6,2,2023,12,7,17,373,-1266,1246,3759,-311,329,-282,
1883,6,2,2023,12,7,17,383,-979,1856,3586,140,136,-372,
1884,6,2,2023,12,7,17,393,-1183,1373,3703,-138,287,-356,
1885,6,2,2023,12,7,17,403,-1114,1412,3612,252,134,-306,
1886,6,2,2023,12,7,17,413,-898,1559,3570,432,58,-392,
1887,6,2,2023,12,7,17,423,-1155,1544,3606,342,166,-457,
1888,6,2,2023,12,7,17,433,-1192,1470,3672,463,101,-396,
1889,6,2,2023,12,7,17,443,-993,1518,3608,534,141,-364,
1890,6,2,2023,12,7,17,453,-1018,1615,3550,642,183,-403,
1891,6,2,2023,12,7,17,463,-1022,1640,3578,745,221,-451,
1892,6,2,2023,12,7,17,473,-1077,1759,3507,858,262,-541,
1893,6,2,2023,12,7,17,483,-853,1690,3581,1000,282,-571,
1894,6,2,2023,12,7,17,493,-1051,1350,3622,1177,433,-551,
1895,6,2,2023,12,7,17,503,-1146,1316,3507,1636,400,-700,
1896,6,2,2023,12,7,17,513,-941,1858,3967,2274,315,-903,
1897,6,2,2023,12,7,17,523,-824,2384,3733,1768,569,-1029,
1898,6,2,2023,12,7,17,533,-1060,1583,3614,1385,1194,-902,
1899,6,2,2023,12,7,17,543,-1035,1463,3658,1982,1370,-1001,
1900,6,2,2023,12,7,17,553,-976,2123,3625,2524,1505,-1275,
1901,6,2,2023,12,7,17,563,-1105,2233,3546,2380,1709,-1562,
1902,6,2,2023,12,7,17,573,-1023,1850,3627,2171,1824,-1846,
1903,6,2,2023,12,7,17,583,-937,1622,3771,2220,1964,-2239,
1904,6,2,2023,12,7,17,593,-612,2002,3693,2403,2163,-2672,
1905,6,2,2023,12,7,17,603,-144,1675,4032,1909,2435,-3252,
1906,6,2,2023,12,7,17,613,60,2815,4016,1793,3022,-4027,
1907,6,2,2023,12,7,17,623,28,3568,3615,581,3651,-4801,
1908,6,2,2023,12,7,17,633,599,4062,4487,-1755,4061,-5396,
1909,6,2,2023,12,7,17,643,-523,3940,4286,-4373,7209,-5961,
1910,6,2,2023,12,7,17,653,853,2171,4236,-5180,9266,-6084,
1911,6,2,2023,12,7,17,663,-436,785,3449,-3499,10790,-6149,
1912,6,2,2023,12,7,17,673,-4263,-573,3450,-8,13901,-7428,
1913,6,2,2023,12,7,17,683,-5324,1427,4240,5117,17234,-9824,
1914,6,2,2023,12,7,17,693,-7323,2514,6148,8379,20048,-11902,
1915,6,2,2023,12,7,17,703,-10032,8662,11474,11290,20935,-12744,
1916,6,2,2023,12,7,17,713,-10657,16163,17101,9890,18587,-13484,
1917,6,2,2023,12,7,17,723,-9204,13865,15909,3287,14274,-13237,
1918,6,2,2023,12,7,17,733,2538,8594,12809,-1786,9404,-9167,
1919,6,2,2023,12,7,17,743,4528,6909,1831,-934,4444,-3832,
1920,6,2,2023,12,7,17,753,-6536,9519,3615,5,5795,-5713,
1921,6,2,2023,12,7,17,763,2205,5625,13135,-995,-3546,-2869,
1922,6,2,2023,12,7,17,773,6465,10896,1611,4986,-2522,494,
1923,6,2,2023,12,7,17,783,1686,9833,-2208,-894,48,-21,
1924,6,2,2023,12,7,17,793,2236,6560,7070,-6466,-5920,1430,
1925,6,2,2023,12,7,17,803,2000,2221,5026,-6154,-3037,2485,
1926,6,2,2023,12,7,17,813,933,2090,1718,-1405,-3442,4095,
1927,6,2,2023,12,7,17,823,2722,3883,3080,178,-8785,4955,
1928,6,2,2023,12,7,17,833,2625,2530,4235,-986,-7775,5258,
1929,6,2,2023,12,7,17,843,240,1642,2438,-618,-5648,5687,
1930,6,2,2023,12,7,17,853,-334,1466,2088,-195,-8717,6021,
1931,6,2,2023,12,7,17,863,607,1078,4284,205,-11210,6381,
1932,6,2,2023,12,7,17,873,-279,495,4339,857,-9343,6871,
1933,6,2,2023,12,7,17,883,-1758,560,2719,1420,-8916,6952,
1934,6,2,2023,12,7,17,893,-2229,1871,3598,1737,-11836,6672,
1935,6,2,2023,12,7,17,903,-1550,3210,5494,1546,-12424,6691,
1936,6,2,2023,12,7,17,913,-2672,3333,5018,764,-10398,7151,
1937,6,2,2023,12,7,17,923,-3750,2748,3953,507,-10712,7971,
1938,6,2,2023,12,7,17,933,-3034,3068,4797,946,-12567,8561,
1939,6,2,2023,12,7,17,943,-2881,3544,5722,978,-11706,8754,
1940,6,2,2023,12,7,17,953,-4012,3586,5597,826,-10107,8974,
1941,6,2,2023,12,7,17,963,-4168,3772,6375,1012,-10794,9024,
1942,6,2,2023,12,7,17,973,-4102,3846,7808,1400,-10634,9008,
1943,6,2,2023,12,7,17,983,-5060,2680,8046,1556,-9570,8994,
1944,6,2,2023,12,7,17,993,-6011,2364,9227,2364,-9732,8733,
1945,6,2,2023,12,7,18,3,-7604,4108,9962,3195,-9700,7827,
1946,6,2,2023,12,7,18,13,-9031,5417,9934,2815,-9657,7313,
1947,6,2,2023,12,7,18,23,-9789,5804,8605,2069,-9288,7231,
1948,6,2,2023,12,7,18,33,-13167,4904,6336,102,-7979,7130,
1949,6,2,2023,12,7,18,43,-15635,922,1686,-1838,-5527,6119,
1950,6,2,2023,12,7,18,53,-14237,-1600,-5125,-959,-4996,4998,
1951,6,2,2023,12,7,18,63,-14391,-2564,-6007,-262,-5492,3682,
1952,6,2,2023,12,7,18,73,-13629,-3705,-4454,1356,-4357,2440,
1953,6,2,2023,12,7,18,83,-14821,-1613,-2616,4375,-1987,2722,
1954,6,2,2023,12,7,18,93,-15079,823,-1742,3448,437,1983,
1955,6,2,2023,12,7,18,103,-13442,1283,-1308,-429,2407,651,
1956,6,2,2023,12,7,18,123,-3480,-2516,2255,-3470,3582,-1118,
1957,6,2,2023,12,7,18,133,11973,1414,7448,609,371,-665,
1958,6,2,2023,12,7,18,143,8625,4246,2350,-339,6335,-2617,
1959,6,2,2023,12,7,18,153,-2880,-489,421,-2643,11276,-4922,
1960,6,2,2023,12,7,18,163,-7462,-874,8088,-653,8863,-3964,
1961,6,2,2023,12,7,18,173,-4136,6763,13104,90,6921,-3739,
1962,6,2,2023,12,7,18,183,-3384,-86,9830,-3658,7180,-4418,
1963,6,2,2023,12,7,18,193,-2101,1804,6379,-2185,5870,-4179,
1964,6,2,2023,12,7,18,203,-4876,9494,4244,-1406,5654,-2551,
1965,6,2,2023,12,7,18,213,-5978,7881,5810,-3438,5617,-3388,
1966,6,2,2023,12,7,18,223,-2079,-641,5326,-4455,4971,-2777,
1967,6,2,2023,12,7,18,233,-984,719,5257,-1333,3796,-1558,
1968,6,2,2023,12,7,18,243,-1814,5161,4258,-885,2745,-1990,
1969,6,2,2023,12,7,18,253,-2003,3456,3933,-2391,2847,-1714,
1970,6,2,2023,12,7,18,263,-1624,-347,4355,-2604,1402,-888,
1971,6,2,2023,12,7,18,273,-1205,1290,4760,-872,-55,-637,
1972,6,2,2023,12,7,18,283,-680,3604,3189,-62,748,-512,
1973,6,2,2023,12,7,18,293,-1183,1251,3012,-1254,1159,-505,
1974,6,2,2023,12,7,18,303,-1182,1013,4336,-519,-566,-220,
1975,6,2,2023,12,7,18,313,-846,2647,3929,308,397,-250,
1976,6,2,2023,12,7,18,323,-1216,1435,2839,-349,845,-341,
1977,6,2,2023,12,7,18,333,-1228,1525,4099,165,-268,-227,
1978,6,2,2023,12,7,18,343,-968,2224,3714,561,233,-230,
1979,6,2,2023,12,7,18,353,-1154,1613,2912,148,501,-311,
1980,6,2,2023,12,7,18,363,-910,1958,3914,508,21,-297,
1981,6,2,2023,12,7,18,373,-1003,1933,3358,414,329,-353,
1982,6,2,2023,12,7,18,383,-1160,1550,3612,287,424,-332,
1983,6,2,2023,12,7,18,393,-1272,1920,3590,729,241,-386,
1984,6,2,2023,12,7,18,403,-1095,1809,3460,561,318,-392,
1985,6,2,2023,12,7,18,413,-1000,1780,3575,653,252,-414,
1986,6,2,2023,12,7,18,423,-1170,1948,3416,763,209,-463,
1987,6,2,2023,12,7,18,433,-1373,1746,3642,665,247,-509,
1988,6,2,2023,12,7,18,443,-1250,1703,3499,664,243,-520,
1989,6,2,2023,12,7,18,453,-1047,1982,3259,941,98,-526,
1990,6,2,2023,12,7,18,463,-1242,2103,3622,557,209,-758,
1991,6,2,2023,12,7,18,473,-1385,1959,3440,518,89,-813,
1992,6,2,2023,12,7,18,483,-1225,1980,3363,667,12,-651,
1993,6,2,2023,12,7,18,493,-1140,1912,3351,614,-262,-807,
1994,6,2,2023,12,7,18,503,-1214,2175,3451,614,-131,-784,
1995,6,2,2023,12,7,18,513,-1226,2072,3356,487,31,-679,
1996,6,2,2023,12,7,18,523,-1204,1998,3529,251,149,-510,
1997,6,2,2023,12,7,18,533,-1124,1613,3490,315,412,-362,
1998,6,2,2023,12,7,18,543,-1115,1832,3397,486,301,-331,
1999,6,2,2023,12,7,18,553,-1284,1883,3459,276,505,-319,
2000,6,2,2023,12,7,18,563,-1260,2021,3334,455,452,-304,
2001,6,2,2023,12,7,18,573,-1261,2130,3373,431,431,-331,
2002,6,2,2023,12,7,18,583,-1291,1904,3363,297,441,-321,
2003,6,2,2023,12,7,18,593,-1321,1995,3407,434,389,-322,
2004,6,2,2023,12,7,18,603,-1202,2128,3342,515,433,-385,
2005,6,2,2023,12,7,18,613,-1300,1898,3390,443,485,-387,
2006,6,2,2023,12,7,18,623,-1247,1892,3458,597,508,-431,
2007,6,2,2023,12,7,18,633,-1292,1887,3341,831,618,-474,
2008,6,2,2023,12,7,18,643,-1283,2070,3430,1015,709,-539,
2009,6,2,2023,12,7,18,653,-1234,1952,3366,1048,791,-621,
2010,6,2,2023,12,7,18,663,-1245,1886,3382,1155,908,-680,
2011,6,2,2023,12,7,18,673,-1292,2174,3410,1397,1102,-810,
2012,6,2,2023,12,7,18,683,-1204,2133,3239,1420,1173,-962,
2013,6,2,2023,12,7,18,693,-1251,2080,3421,1472,1311,-1145,
2014,6,2,2023,12,7,18,703,-1180,2063,3361,1729,1443,-1406,
2015,6,2,2023,12,7,18,713,-1015,2074,3392,1498,1530,-1783,
2016,6,2,2023,12,7,18,723,-840,1607,3620,1112,1674,-2258,
2017,6,2,2023,12,7,18,733,-498,2025,3778,1214,2032,-2767,
2018,6,2,2023,12,7,18,743,-469,2943,3640,926,2556,-3428,
2019,6,2,2023,12,7,18,753,-703,3864,3414,-362,2687,-4056,
2020,6,2,2023,12,7,18,763,-481,4067,4317,-3011,3503,-4647,
2021,6,2,2023,12,7,18,773,176,3990,4454,-4440,7112,-5114,
2022,6,2,2023,12,7,18,783,370,2868,4216,-5158,9043,-5413,
2023,6,2,2023,12,7,18,793,66,1031,3774,-4150,9933,-5852,
2024,6,2,2023,12,7,18,803,-4101,-101,2638,-1002,12178,-6734,
2025,6,2,2023,12,7,18,813,-5487,791,3501,4350,15586,-8822,
2026,6,2,2023,12,7,18,823,-6736,3007,4858,9100,18427,-10744,
2027,6,2,2023,12,7,18,833,-8187,8776,10170,12101,20013,-11993,
2028,6,2,2023,12,7,18,843,-7652,11623,13744,10000,18635,-13457,
2029,6,2,2023,12,7,18,853,-8304,12088,14516,5942,15499,-13293,
2030,6,2,2023,12,7,18,863,-2823,8597,14074,297,11711,-11307,
2031,6,2,2023,12,7,18,873,3316,9270,8561,1572,5127,-6160,
2032,6,2,2023,12,7,18,883,-320,13441,813,1273,1176,-8004,
2033,6,2,2023,12,7,18,893,-3874,5442,11746,-3871,-2021,-3031,
2034,6,2,2023,12,7,18,903,7688,9898,4612,3414,-7912,689,
2035,6,2,2023,12,7,18,913,3571,10060,-6490,645,-156,-616,
2036,6,2,2023,12,7,18,923,-769,6566,3398,-4367,-4246,1279,
2037,6,2,2023,12,7,18,933,3176,847,5476,-6829,-8361,2961,
2038,6,2,2023,12,7,18,943,843,2851,2265,-837,-2243,3753,
2039,6,2,2023,12,7,18,953,-605,4755,609,786,-4908,4227,
2040,6,2,2023,12,7,18,963,644,3656,4240,-719,-9764,4938,
2041,6,2,2023,12,7,18,983,-943,2150,2503,-868,-6798,6396,
2042,6,2,2023,12,7,18,993,-1620,1194,1686,-931,-9268,6720,
2043,6,2,2023,12,7,19,3,-681,946,3386,-287,-11507,6900,
2044,6,2,2023,12,7,19,13,-909,1418,3719,857,-9751,7011,
2045,6,2,2023,12,7,19,23,-2432,2697,2611,1616,-8606,7176,
2046,6,2,2023,12,7,19,33,-2442,3715,3186,1587,-10348,7790,
2047,6,2,2023,12,7,19,43,-2093,3801,4755,743,-10668,8462,
2048,6,2,2023,12,7,19,53,-2922,3749,4608,-11,-8565,8956,
2049,6,2,2023,12,7,19,63,-3924,2509,3990,-982,-7949,9301,
2050,6,2,2023,12,7,19,73,-3992,723,5313,-1031,-9250,9823,
2051,6,2,2023,12,7,19,83,-3975,-372,6897,-186,-9233,9690,
2052,6,2,2023,12,7,19,93,-4873,-230,7126,831,-8143,8545,
2053,6,2,2023,12,7,19,103,-5343,1628,7566,1618,-8882,7163,
2054,6,2,2023,12,7,19,113,-4985,2702,8379,1432,-10083,6274,
2055,6,2,2023,12,7,19,123,-5223,2766,8025,972,-9506,5602,
2056,6,2,2023,12,7,19,133,-6382,3351,7302,1336,-9039,5326,
2057,6,2,2023,12,7,19,143,-7496,3838,7914,1975,-9546,5537,
2058,6,2,2023,12,7,19,153,-8457,4432,7811,2413,-8973,5934,
2059,6,2,2023,12,7,19,163,-9928,4158,4690,1862,-7249,6123,
2060,6,2,2023,12,7,19,173,-11058,3239,1554,1257,-6398,6070,
2061,6,2,2023,12,7,19,183,-13074,2031,389,308,-6051,5823,
2062,6,2,2023,12,7,19,193,-12942,730,-1435,92,-4355,5197,
2063,6,2,2023,12,7,19,203,-13294,390,-3655,122,-2890,5142,
2064,6,2,2023,12,7,19,213,-14041,-1798,-4244,-553,-2396,4290,
2065,6,2,2023,12,7,19,223,-14184,-4051,-4288,-391,-1164,3263,
2066,6,2,2023,12,7,19,233,-13360,-2894,-3752,868,874,1839,
2067,6,2,2023,12,7,19,243,-11982,-794,-1790,461,1881,421,
2068,6,2,2023,12,7,19,253,-10606,185,1000,-1114,2487,-621,
2069,6,2,2023,12,7,19,263,-2140,295,3266,-1583,2368,-616,
2070,6,2,2023,12,7,19,273,10405,1488,8570,-631,1150,8,
2071,6,2,2023,12,7,19,283,6783,-28,4131,-1007,5744,-648,
2072,6,2,2023,12,7,19,293,-1880,-1360,272,-532,9071,-2864,
2073,6,2,2023,12,7,19,303,-6904,4890,4964,1270,7522,-4044,
2074,6,2,2023,12,7,19,313,-4624,9181,12766,333,4778,-3151,
2075,6,2,2023,12,7,19,323,-2084,668,7361,-3357,6387,-3141,
2076,6,2,2023,12,7,19,333,-1477,1968,4845,-789,5314,-2598,
2077,6,2,2023,12,7,19,343,-3634,4798,7041,-1030,5082,-2364,
2078,6,2,2023,12,7,19,353,-5878,4392,6462,-2498,4503,-2461,
2079,6,2,2023,12,7,19,363,-2631,2671,4383,-1582,3395,-2197,
2080,6,2,2023,12,7,19,373,-58,2323,3738,-354,2866,-1249,
2081,6,2,2023,12,7,19,383,-1314,4513,3725,-448,2792,-1576,
2082,6,2,2023,12,7,19,393,-2206,2305,3758,-1831,2288,-1329,
2083,6,2,2023,12,7,19,403,-692,1579,3914,-721,1035,-539,
2084,6,2,2023,12,7,19,413,-611,2254,3899,-491,1060,-812,
2085,6,2,2023,12,7,19,423,-1771,1609,4018,-863,1523,-829,
2086,6,2,2023,12,7,19,433,-1080,2018,3544,127,447,-465,
2087,6,2,2023,12,7,19,443,-636,2721,3417,406,207,-491,
2088,6,2,2023,12,7,19,453,-1169,2036,3529,-122,865,-483,
2089,6,2,2023,12,7,19,463,-1256,1775,3550,289,530,-294,
2090,6,2,2023,12,7,19,473,-854,2117,3575,805,95,-213,
2091,6,2,2023,12,7,19,483,-800,2096,3417,844,428,-201,
2092,6,2,2023,12,7,19,493,-1006,1861,3343,791,534,-198,
2093,6,2,2023,12,7,19,503,-999,1992,3434,1013,171,-261,
2094,6,2,2023,12,7,19,513,-1149,2383,3497,1105,224,-312,
2095,6,2,2023,12,7,19,523,-1109,2497,3348,736,379,-364,
2096,6,2,2023,12,7,19,533,-1012,2128,3216,435,106,-142,
2097,6,2,2023,12,7,19,543,-800,2113,3439,448,102,-178,
2098,6,2,2023,12,7,19,553,-1131,2191,3473,442,331,-175,
2099,6,2,2023,12,7,19,563,-1202,2321,3228,391,325,-222,
2100,6,2,2023,12,7,19,573,-1051,2238,3307,77,0,-216,
2101,6,2,2023,12,7,19,583,-1106,2150,3382,-4,174,-238,
2102,6,2,2023,12,7,19,593,-1091,2109,3313,118,91,-191,
2103,6,2,2023,12,7,19,603,-1011,2131,3302,80,39,-180,
2104,6,2,2023,12,7,19,613,-1073,2132,3269,112,159,-259,
2105,6,2,2023,12,7,19,623,-1050,2182,3364,34,57,-288,
2106,6,2,2023,12,7,19,633,-1094,2115,3295,93,61,-290,
2107,6,2,2023,12,7,19,643,-1029,2193,3314,157,15,-258,
2108,6,2,2023,12,7,19,653,-937,2141,3104,210,51,-346,
2109,6,2,2023,12,7,19,663,-1091,2293,3244,109,142,-453,
2110,6,2,2023,12,7,19,673,-1246,2098,3537,-151,295,-474,
2111,6,2,2023,12,7,19,683,-1048,2206,3236,152,45,-337,
2112,6,2,2023,12,7,19,693,-1133,2255,3194,111,199,-401,
2113,6,2,2023,12,7,19,703,-1171,2196,3332,-83,127,-405,
2114,6,2,2023,12,7,19,713,-1193,2295,3277,-69,186,-381,
2115,6,2,2023,12,7,19,723,-1168,2145,3323,-124,175,-344,
2116,6,2,2023,12,7,19,733,-1142,2176,3279,-266,121,-345,
2117,6,2,2023,12,7,19,743,-1204,2245,3298,-258,218,-358,
2118,6,2,2023,12,7,19,753,-1087,2176,3285,-388,145,-335,
2119,6,2,2023,12,7,19,763,-1163,2240,3239,-401,293,-426,
2120,6,2,2023,12,7,19,773,-1194,2287,3292,-443,302,-454,
2121,6,2,2023,12,7,19,783,-1071,2059,3380,-419,387,-487,
2122,6,2,2023,12,7,19,793,-1169,2306,3291,-211,400,-532,
2123,6,2,2023,12,7,19,803,-1209,2195,3401,-154,626,-600,
2124,6,2,2023,12,7,19,813,-986,2009,3409,169,535,-546,
2125,6,2,2023,12,7,19,823,-1106,2054,3224,597,854,-696,
2126,6,2,2023,12,7,19,843,-1110,2318,3435,1397,1257,-1006,
2127,6,2,2023,12,7,19,853,-986,2146,3133,1803,1463,-1126,
2128,6,2,2023,12,7,19,863,-1153,2331,3334,2465,1871,-1384,
2129,6,2,2023,12,7,19,873,-1072,2165,3267,2632,1881,-1688,
2130,6,2,2023,12,7,19,883,-427,1785,2992,2760,2168,-1984,
2131,6,2,2023,12,7,19,893,-1127,1791,3830,2156,3425,-2538,
2132,6,2,2023,12,7,19,903,-822,1573,3992,1926,2610,-3033,
2133,6,2,2023,12,7,19,913,-171,2715,3548,2398,2212,-3196,
2134,6,2,2023,12,7,19,923,-956,4733,3249,980,2738,-3764,
2135,6,2,2023,12,7,19,933,355,4012,5071,-1388,4831,-4546,
2136,6,2,2023,12,7,19,943,1331,4296,4805,-2335,8565,-5278,
2137,6,2,2023,12,7,19,953,518,2752,3848,-3567,9464,-5696,
2138,6,2,2023,12,7,19,963,-2930,540,2032,-827,10733,-6197,
2139,6,2,2023,12,7,19,973,-5769,1564,3286,5264,13290,-7817,
2140,6,2,2023,12,7,19,983,-6133,2917,4383,8686,16108,-10154,
2141,6,2,2023,12,7,19,993,-6707,8783,7777,11745,18029,-11656,
2142,6,2,2023,12,7,20,3,-7457,13705,12443,10908,16945,-12661,
2143,6,2,2023,12,7,20,13,-7075,10714,11800,4588,15721,-13019,
2144,6,2,2023,12,7,20,23,-3478,8462,11894,3100,11892,-9960,
2145,6,2,2023,12,7,20,33,5045,10540,8104,3183,4988,-5876,
2146,6,2,2023,12,7,20,43,-845,17457,1170,3931,958,-4201,
2147,6,2,2023,12,7,20,53,-2224,12642,6482,-3899,686,-3311,
2148,6,2,2023,12,7,20,63,4558,5807,9607,-7499,-3070,704,
2149,6,2,2023,12,7,20,73,4308,4360,-1330,-837,-1312,1933,
2150,6,2,2023,12,7,20,83,2666,3807,-1048,-2279,-2187,1777,
2151,6,2,2023,12,7,20,93,2625,2762,4197,-6206,-4104,1445,
2152,6,2,2023,12,7,20,103,324,2141,2742,-4320,-2568,1383,
2153,6,2,2023,12,7,20,113,633,738,1752,-2445,-4450,1773,
2154,6,2,2023,12,7,20,123,2283,2483,3700,-146,-7456,3046,
2155,6,2,2023,12,7,20,133,1198,3691,2944,537,-6407,3275,
2156,6,2,2023,12,7,20,143,-321,4033,2357,-351,-6935,3454,
2157,6,2,2023,12,7,20,153,305,2604,3549,-2005,-9282,3896,
2158,6,2,2023,12,7,20,163,-148,1900,3174,-1266,-8800,4440,
2159,6,2,2023,12,7,20,173,-874,2026,1973,-664,-8793,4827,
2160,6,2,2023,12,7,20,183,-725,1733,2145,-335,-9961,5308,
2161,6,2,2023,12,7,20,193,-787,2183,2969,496,-10089,5590,
2162,6,2,2023,12,7,20,203,-1437,3519,3400,990,-9483,5863,
2163,6,2,2023,12,7,20,213,-1965,4216,3714,458,-9508,6221,
2164,6,2,2023,12,7,20,223,-2284,4045,4503,-289,-9748,6623,
2165,6,2,2023,12,7,20,233,-2567,2988,4591,-721,-9379,7042,
2166,6,2,2023,12,7,20,243,-2970,1850,3813,-449,-8971,7318,
2167,6,2,2023,12,7,20,253,-3475,1391,3813,354,-9268,7319,
2168,6,2,2023,12,7,20,263,-2949,1981,4482,1141,-9335,6859,
2169,6,2,2023,12,7,20,273,-3473,3644,6033,1788,-8448,6172,
2170,6,2,2023,12,7,20,283,-4881,4950,9110,2282,-8118,6049,
2171,6,2,2023,12,7,20,293,-5830,5806,10091,2597,-8062,6218,
2172,6,2,2023,12,7,20,303,-6178,7931,7821,3074,-8210,6453,
2173,6,2,2023,12,7,20,313,-7031,7470,6793,2149,-7944,7001,
2174,6,2,2023,12,7,20,323,-8904,5061,6658,1271,-7054,7870,
2175,6,2,2023,12,7,20,333,-11313,4157,6230,1383,-6290,8308,
2176,6,2,2023,12,7,20,343,-12822,3027,5150,669,-6241,7998,
2177,6,2,2023,12,7,20,353,-13188,359,2676,-877,-6201,6931,
2178,6,2,2023,12,7,20,363,-12542,-2912,-1045,-1313,-4890,5534,
2179,6,2,2023,12,7,20,373,-12521,-2939,-3502,51,-4020,4697,
2180,6,2,2023,12,7,20,383,-12970,-2788,-3351,974,-3376,3743,
2181,6,2,2023,12,7,20,393,-14272,-3001,-3414,1408,-1636,3266,
2182,6,2,2023,12,7,20,403,-13984,-2353,-3964,1026,410,1985,
2183,6,2,2023,12,7,20,413,-12046,-1904,-2702,-221,1225,428,
2184,6,2,2023,12,7,20,423,-10343,259,104,-882,1753,-525,
2185,6,2,2023,12,7,20,433,-4781,1967,2378,-1922,3077,-779,
2186,6,2,2023,12,7,20,443,4882,573,5503,-3052,1876,-271,
2187,6,2,2023,12,7,20,453,10551,-42,7802,-2070,3805,-1604,
2188,6,2,2023,12,7,20,463,-540,496,2436,-825,8815,-4011,
2189,6,2,2023,12,7,20,473,-6126,1498,2779,-1481,9560,-4755,
2190,6,2,2023,12,7,20,483,-6153,6601,12317,-833,4576,-3433,
2191,6,2,2023,12,7,20,493,-2384,3027,8877,-2944,5919,-3254,
2192,6,2,2023,12,7,20,503,-1392,-1500,5471,-3026,5455,-3536,
2193,6,2,2023,12,7,20,513,-1876,4736,5331,-775,4636,-2547,
2194,6,2,2023,12,7,20,523,-6079,7283,4884,-2897,5347,-3295,
2195,6,2,2023,12,7,20,533,-3817,3069,5159,-3845,4211,-3307,
2196,6,2,2023,12,7,20,543,-112,1804,4374,-1653,3331,-1650,
2197,6,2,2023,12,7,20,553,-1448,2664,4107,-2013,3248,-1846,
2198,6,2,2023,12,7,20,563,-2563,3646,3986,-2316,2261,-2149,
2199,6,2,2023,12,7,20,573,-1131,2265,3876,-2044,483,-1337,
2200,6,2,2023,12,7,20,583,-592,791,3852,-2134,259,-1092,
2201,6,2,2023,12,7,20,593,-1820,2494,4549,-1016,1254,-927,
2202,6,2,2023,12,7,20,603,-996,2494,2675,-679,702,-650,
2203,6,2,2023,12,7,20,613,-915,1683,3662,-892,30,-504,
2204,6,2,2023,12,7,20,623,-919,1878,4209,-483,-145,-298,
2205,6,2,2023,12,7,20,633,-1128,1926,3401,-256,920,-234,
2206,6,2,2023,12,7,20,643,-1110,1862,3061,-185,403,-200,
2207,6,2,2023,12,7,20,653,-1034,1670,4013,-195,-573,-136,
2208,6,2,2023,12,7,20,663,-1214,1699,3935,76,325,-175,
2209,6,2,2023,12,7,20,673,-1331,1942,3118,340,873,-291,
2210,6,2,2023,12,7,20,683,-956,2012,3279,298,-314,-278,
2211,6,2,2023,12,7,20,703,-1167,1784,3503,359,693,-213,
2212,6,2,2023,12,7,20,713,-1510,1950,3000,500,476,-235,
2213,6,2,2023,12,7,20,723,-1213,1958,3656,382,-425,-246,
2214,6,2,2023,12,7,20,733,-629,1960,3752,425,-154,-234,
2215,6,2,2023,12,7,20,743,-1197,1984,3324,526,605,-195,
2216,6,2,2023,12,7,20,753,-1504,1829,3278,417,219,-201,
2217,6,2,2023,12,7,20,763,-967,1899,3789,498,-337,-200,
2218,6,2,2023,12,7,20,773,-1120,1957,3423,504,269,-217,
2219,6,2,2023,12,7,20,783,-1217,2123,3430,401,158,-203,
2220,6,2,2023,12,7,20,793,-1092,1900,3490,146,101,-182,
2221,6,2,2023,12,7,20,803,-1126,1974,3376,177,236,-199,
2222,6,2,2023,12,7,20,813,-1146,1971,3502,157,99,-199,
2223,6,2,2023,12,7,20,823,-1057,1917,3365,132,127,-167,
2224,6,2,2023,12,7,20,833,-1243,2025,3471,122,232,-198,
2225,6,2,2023,12,7,20,843,-1049,1859,3425,95,73,-130,
2226,6,2,2023,12,7,20,853,-1211,1999,3423,119,170,-198,
2227,6,2,2023,12,7,20,863,-1250,2014,3408,26,174,-137,
2228,6,2,2023,12,7,20,873,-988,1850,3393,-28,47,-55,
2229,6,2,2023,12,7,20,883,-1195,2012,3422,-7,155,-167,
2230,6,2,2023,12,7,20,893,-1181,1925,3456,-109,114,-141,
2231,6,2,2023,12,7,20,903,-1248,1965,3376,-122,7,-150,
2232,6,2,2023,12,7,20,913,-1115,1928,3439,-260,161,-182,
2233,6,2,2023,12,7,20,923,-1046,1848,3421,-317,-12,-80,
2234,6,2,2023,12,7,20,933,-1192,2049,3348,-211,160,-256,
2235,6,2,2023,12,7,20,943,-1129,1954,3373,-337,131,-177,
2236,6,2,2023,12,7,20,953,-1096,1890,3387,-206,174,-238,
2237,6,2,2023,12,7,20,963,-1332,1910,3378,-33,362,-316,
2238,6,2,2023,12,7,20,973,-1016,1893,3574,266,387,-347,
2239,6,2,2023,12,7,20,983,-1179,1994,3423,486,286,-358,
2240,6,2,2023,12,7,20,993,-1151,1841,3366,635,534,-349,
2241,6,2,2023,12,7,21,3,-1117,1791,3515,854,578,-368,
2242,6,2,2023,12,7,21,13,-1219,1892,3466,1440,878,-583,
2243,6,2,2023,12,7,21,23,-1138,2277,3369,2002,911,-698,
2244,6,2,2023,12,7,21,33,-1005,2294,3318,2217,980,-839,
2245,6,2,2023,12,7,21,43,-1028,2076,3165,2515,1338,-875,
2246,6,2,2023,12,7,21,53,-1061,2237,3458,3207,1831,-1129,
2247,6,2,2023,12,7,21,63,-792,1840,3321,2932,1734,-1421,
2248,6,2,2023,12,7,21,73,-349,1578,2891,2707,2454,-1828,
2249,6,2,2023,12,7,21,83,-701,1413,3520,2260,3830,-2569,
2250,6,2,2023,12,7,21,93,-743,1959,4522,2482,3524,-3230,
2251,6,2,2023,12,7,21,103,-435,3002,3893,2130,2690,-3408,
2252,6,2,2023,12,7,21,113,-1032,4641,3168,166,2880,-4003,
2253,6,2,2023,12,7,21,123,-216,3542,4980,-2244,4870,-4887,
2254,6,2,2023,12,7,21,133,1738,3740,5241,-1558,8915,-5205,
2255,6,2,2023,12,7,21,143,180,1958,3696,-2002,10302,-5372,
2256,6,2,2023,12,7,21,153,-4251,312,2223,1684,11680,-6170,
2257,6,2,2023,12,7,21,163,-4571,2853,3914,7346,14206,-8021,
2258,6,2,2023,12,7,21,173,-5297,5293,5284,9007,16684,-9757,
2259,6,2,2023,12,7,21,183,-5953,8785,10015,9758,18089,-11260,
2260,6,2,2023,12,7,21,193,-7172,12860,10882,6739,16484,-12075,
2261,6,2,2023,12,7,21,203,-7231,8878,10676,2469,14467,-10217,
2262,6,2,2023,12,7,21,213,-963,4061,10490,2992,9654,-6700,
