Packet #, Month, Day, Year, Hour, Minute, Second, MS, ACC X, ACC Y, ACC Z, GYR X, GYR Y, GYR Z
1,7,20,2023,11,29,4,728,0,0,0,0,0,0,
2,7,20,2023,11,29,4,738,0,0,0,0,0,0,
3,7,20,2023,11,29,4,748,0,0,0,0,0,0,
4,7,20,2023,11,29,4,758,0,0,0,0,0,0,
5,7,20,2023,11,29,4,768,0,0,0,0,0,0,
6,7,20,2023,11,29,4,778,0,0,0,0,0,0,
7,7,20,2023,11,29,4,788,-1969,251,3585,-3,5,6,
8,7,20,2023,11,29,4,798,-1972,248,3576,3,-3,1,
9,7,20,2023,11,29,4,808,-1969,256,3579,2,-8,5,
10,7,20,2023,11,29,4,818,-1973,253,3575,-1,-5,4,
11,7,20,2023,11,29,4,828,-1965,250,3571,3,-3,6,
12,7,20,2023,11,29,4,838,-1970,255,3573,2,-6,6,
13,7,20,2023,11,29,4,848,-1969,254,3574,1,-2,7,
14,7,20,2023,11,29,4,858,-1962,255,3577,2,0,5,
15,7,20,2023,11,29,4,868,-1969,250,3577,2,0,4,
16,7,20,2023,11,29,4,878,-1971,248,3577,7,0,7,
17,7,20,2023,11,29,4,888,-1967,252,3570,8,1,10,
18,7,20,2023,11,29,4,898,-1970,256,3573,4,2,9,
19,7,20,2023,11,29,4,908,-1972,253,3574,0,0,3,
20,7,20,2023,11,29,4,918,-1973,254,3574,4,1,6,
21,7,20,2023,11,29,4,928,-1971,250,3579,5,2,5,
22,7,20,2023,11,29,4,938,-1967,250,3580,3,2,5,
23,7,20,2023,11,29,4,948,-1967,256,3573,5,-5,6,
24,7,20,2023,11,29,4,958,-1966,260,3572,7,-3,4,
25,7,20,2023,11,29,4,968,-1968,253,3576,1,0,7,
26,7,20,2023,11,29,4,978,-1973,250,3581,0,-1,6,
27,7,20,2023,11,29,4,988,-1977,252,3576,1,-4,6,
28,7,20,2023,11,29,4,998,-1973,253,3575,1,-7,9,
29,7,20,2023,11,29,5,8,-1970,254,3574,3,-4,8,
30,7,20,2023,11,29,5,18,-1962,261,3579,7,-7,7,
31,7,20,2023,11,29,5,28,-1962,259,3581,3,-6,6,
32,7,20,2023,11,29,5,38,-1967,250,3576,3,-3,7,
33,7,20,2023,11,29,5,48,-1965,254,3587,5,-5,8,
34,7,20,2023,11,29,5,58,-1967,256,3580,6,-4,6,
35,7,20,2023,11,29,5,68,-1973,249,3582,3,-5,8,
36,7,20,2023,11,29,5,78,-1969,251,3576,5,-5,11,
37,7,20,2023,11,29,5,88,-1964,257,3573,7,-3,12,
38,7,20,2023,11,29,5,98,-1952,264,3576,5,-5,9,
39,7,20,2023,11,29,5,108,-1963,257,3583,-1,1,3,
40,7,20,2023,11,29,5,118,-1965,251,3582,1,-1,2,
41,7,20,2023,11,29,5,128,-1966,253,3584,4,-2,3,
42,7,20,2023,11,29,5,138,-1972,245,3578,4,-2,5,
43,7,20,2023,11,29,5,148,-1968,254,3576,4,-3,8,
44,7,20,2023,11,29,5,158,-1958,256,3579,4,-7,7,
45,7,20,2023,11,29,5,168,-1956,253,3583,5,-5,6,
46,7,20,2023,11,29,5,178,-1960,258,3581,4,-5,6,
47,7,20,2023,11,29,5,188,-1961,273,3587,7,-4,5,
48,7,20,2023,11,29,5,198,-1969,257,3580,2,-1,5,
49,7,20,2023,11,29,5,208,-1958,248,3581,1,0,3,
50,7,20,2023,11,29,5,218,-1964,262,3578,0,5,5,
51,7,20,2023,11,29,5,228,-1972,257,3581,3,5,3,
52,7,20,2023,11,29,5,238,-1961,253,3583,1,2,4,
53,7,20,2023,11,29,5,248,-1959,251,3577,0,2,3,
54,7,20,2023,11,29,5,258,-1963,257,3577,3,6,6,
55,7,20,2023,11,29,5,268,-1965,265,3579,4,1,2,
56,7,20,2023,11,29,5,278,-1968,257,3576,2,3,1,
57,7,20,2023,11,29,5,288,-1973,252,3576,-1,5,1,
58,7,20,2023,11,29,5,298,-1964,250,3582,-3,2,1,
59,7,20,2023,11,29,5,308,-1963,250,3585,-2,3,3,
60,7,20,2023,11,29,5,318,-1969,257,3588,2,1,1,
61,7,20,2023,11,29,5,328,-1969,247,3575,-1,0,3,
62,7,20,2023,11,29,5,338,-1959,251,3582,4,2,6,
63,7,20,2023,11,29,5,348,-1965,270,3582,4,-1,4,
64,7,20,2023,11,29,5,358,-1966,259,3581,2,-2,1,
65,7,20,2023,11,29,5,368,-1964,255,3580,3,-2,3,
66,7,20,2023,11,29,5,378,-1961,259,3580,2,-2,3,
67,7,20,2023,11,29,5,388,-1955,262,3585,1,-2,2,
68,7,20,2023,11,29,5,398,-1961,257,3580,0,2,-2,
69,7,20,2023,11,29,5,408,-1956,261,3575,2,5,-1,
70,7,20,2023,11,29,5,418,-1960,257,3591,3,7,-2,
71,7,20,2023,11,29,5,428,-1964,264,3579,1,9,0,
72,7,20,2023,11,29,5,438,-1965,261,3575,0,9,-1,
73,7,20,2023,11,29,5,448,-1964,253,3586,-2,8,-6,
74,7,20,2023,11,29,5,458,-1958,253,3581,-3,7,-3,
75,7,20,2023,11,29,5,468,-1965,254,3577,0,11,-2,
76,7,20,2023,11,29,5,478,-1957,258,3579,0,14,0,
77,7,20,2023,11,29,5,488,-1959,259,3583,-1,18,-2,
78,7,20,2023,11,29,5,498,-1975,246,3575,1,17,-5,
79,7,20,2023,11,29,5,508,-1977,254,3575,5,15,1,
80,7,20,2023,11,29,5,518,-1963,258,3585,6,13,3,
81,7,20,2023,11,29,5,528,-1963,265,3573,5,13,2,
82,7,20,2023,11,29,5,538,-1962,253,3578,2,14,-2,
83,7,20,2023,11,29,5,548,-1967,260,3588,1,14,-1,
84,7,20,2023,11,29,5,558,-1976,256,3583,-1,14,-3,
85,7,20,2023,11,29,5,568,-1978,248,3579,1,11,-3,
86,7,20,2023,11,29,5,588,-1973,250,3573,2,7,3,
87,7,20,2023,11,29,5,598,-1966,258,3575,2,6,5,
88,7,20,2023,11,29,5,608,-1960,265,3582,1,6,2,
89,7,20,2023,11,29,5,618,-1968,256,3573,0,5,3,
90,7,20,2023,11,29,5,628,-1966,249,3579,-1,5,3,
91,7,20,2023,11,29,5,638,-1961,259,3583,1,0,1,
92,7,20,2023,11,29,5,648,-1972,249,3581,-1,1,3,
93,7,20,2023,11,29,5,658,-1967,256,3578,0,6,0,
94,7,20,2023,11,29,5,668,-1963,258,3580,0,7,0,
95,7,20,2023,11,29,5,678,-1963,256,3579,-1,8,3,
96,7,20,2023,11,29,5,688,-1966,257,3575,2,9,5,
97,7,20,2023,11,29,5,698,-1969,258,3573,0,8,0,
98,7,20,2023,11,29,5,708,-1962,250,3582,1,13,-1,
99,7,20,2023,11,29,5,718,-1960,259,3581,2,13,0,
100,7,20,2023,11,29,5,728,-1965,259,3581,5,12,3,
101,7,20,2023,11,29,5,738,-1969,255,3581,4,11,2,
102,7,20,2023,11,29,5,748,-1967,259,3575,4,11,2,
103,7,20,2023,11,29,5,758,-1962,260,3573,1,8,2,
104,7,20,2023,11,29,5,768,-1962,256,3580,0,10,0,
105,7,20,2023,11,29,5,778,-1967,250,3569,1,11,3,
106,7,20,2023,11,29,5,788,-1966,261,3578,2,10,3,
107,7,20,2023,11,29,5,798,-1974,264,3578,-2,7,0,
108,7,20,2023,11,29,5,808,-1968,257,3577,-4,6,0,
109,7,20,2023,11,29,5,818,-1973,257,3576,-4,1,1,
110,7,20,2023,11,29,5,828,-1962,258,3583,-1,1,1,
111,7,20,2023,11,29,5,838,-1961,260,3582,-1,6,0,
112,7,20,2023,11,29,5,848,-1963,263,3575,-6,8,-2,
113,7,20,2023,11,29,5,858,-1969,257,3575,1,10,-3,
114,7,20,2023,11,29,5,868,-1968,247,3579,2,9,2,
115,7,20,2023,11,29,5,878,-1966,248,3582,0,10,0,
116,7,20,2023,11,29,5,888,-1970,254,3574,-1,11,2,
117,7,20,2023,11,29,5,898,-1975,261,3573,2,10,4,
118,7,20,2023,11,29,5,908,-1968,261,3578,2,8,3,
119,7,20,2023,11,29,5,918,-1969,258,3578,1,11,1,
120,7,20,2023,11,29,5,928,-1962,262,3575,-2,5,2,
121,7,20,2023,11,29,5,938,-1967,263,3574,0,7,1,
122,7,20,2023,11,29,5,948,-1971,262,3576,-5,6,-4,
123,7,20,2023,11,29,5,958,-1972,255,3577,-2,7,-1,
124,7,20,2023,11,29,5,968,-1971,259,3578,-1,4,1,
125,7,20,2023,11,29,5,978,-1964,252,3575,-1,7,-1,
126,7,20,2023,11,29,5,988,-1971,254,3582,0,8,-2,
127,7,20,2023,11,29,5,998,-1974,256,3581,-3,2,0,
128,7,20,2023,11,29,6,8,-1958,254,3578,-4,5,1,
129,7,20,2023,11,29,6,18,-1973,255,3579,-2,7,2,
130,7,20,2023,11,29,6,28,-1971,253,3579,0,6,5,
131,7,20,2023,11,29,6,38,-1968,252,3577,-3,6,2,
132,7,20,2023,11,29,6,48,-1974,255,3578,-4,5,2,
133,7,20,2023,11,29,6,58,-1965,260,3575,-1,2,1,
134,7,20,2023,11,29,6,68,-1967,254,3574,-3,1,2,
135,7,20,2023,11,29,6,78,-1970,262,3572,-3,3,4,
136,7,20,2023,11,29,6,88,-1969,258,3582,0,1,8,
137,7,20,2023,11,29,6,98,-1971,254,3582,-3,3,0,
138,7,20,2023,11,29,6,108,-1970,258,3574,-4,-2,3,
139,7,20,2023,11,29,6,118,-1966,259,3577,2,-1,5,
140,7,20,2023,11,29,6,128,-1971,257,3577,-1,1,3,
141,7,20,2023,11,29,6,138,-1971,257,3580,-2,-2,4,
142,7,20,2023,11,29,6,148,-1967,257,3582,-5,-3,1,
143,7,20,2023,11,29,6,158,-1964,255,3590,-1,-6,3,
144,7,20,2023,11,29,6,168,-1967,257,3576,2,-6,4,
145,7,20,2023,11,29,6,178,-1966,257,3580,-1,-3,2,
146,7,20,2023,11,29,6,188,-1965,261,3583,-4,-3,-1,
147,7,20,2023,11,29,6,198,-1963,256,3583,-2,0,0,
148,7,20,2023,11,29,6,208,-1975,256,3578,-3,3,3,
149,7,20,2023,11,29,6,218,-1964,258,3576,0,6,1,
150,7,20,2023,11,29,6,228,-1960,250,3574,-2,4,1,
151,7,20,2023,11,29,6,238,-1966,250,3576,-2,8,-1,
152,7,20,2023,11,29,6,248,-1968,252,3586,1,11,0,
153,7,20,2023,11,29,6,258,-1962,257,3581,4,7,6,
154,7,20,2023,11,29,6,268,-1969,255,3581,1,7,2,
155,7,20,2023,11,29,6,278,-1963,260,3576,-1,7,-3,
156,7,20,2023,11,29,6,288,-1971,255,3581,1,7,3,
157,7,20,2023,11,29,6,298,-1967,260,3576,0,7,5,
158,7,20,2023,11,29,6,308,-1975,262,3576,-1,9,0,
159,7,20,2023,11,29,6,318,-1975,261,3577,-1,7,-1,
160,7,20,2023,11,29,6,328,-1967,259,3573,-4,4,-3,
161,7,20,2023,11,29,6,338,-1961,260,3581,-7,1,-4,
162,7,20,2023,11,29,6,348,-1967,259,3585,-6,6,-6,
163,7,20,2023,11,29,6,358,-1973,251,3585,-7,8,-3,
164,7,20,2023,11,29,6,368,-1964,260,3582,-2,10,-3,
165,7,20,2023,11,29,6,378,-1967,251,3579,-1,10,-3,
166,7,20,2023,11,29,6,388,-1969,249,3582,-1,7,0,
167,7,20,2023,11,29,6,398,-1967,256,3578,1,11,-1,
168,7,20,2023,11,29,6,408,-1962,251,3571,1,11,0,
169,7,20,2023,11,29,6,418,-1970,249,3576,0,8,2,
170,7,20,2023,11,29,6,428,-1972,257,3578,0,4,4,
171,7,20,2023,11,29,6,448,-1961,260,3580,2,6,-1,
172,7,20,2023,11,29,6,458,-1972,257,3575,-3,6,-5,
173,7,20,2023,11,29,6,468,-1972,255,3581,-3,8,-4,
174,7,20,2023,11,29,6,478,-1971,252,3579,-3,5,-3,
175,7,20,2023,11,29,6,488,-1968,257,3581,-4,3,-4,
176,7,20,2023,11,29,6,498,-1964,264,3574,-3,3,-3,
177,7,20,2023,11,29,6,508,-1955,254,3574,-4,7,-3,
178,7,20,2023,11,29,6,518,-1966,247,3572,-6,9,-3,
179,7,20,2023,11,29,6,528,-1980,250,3582,-4,9,-2,
180,7,20,2023,11,29,6,538,-1977,254,3584,0,6,-2,
181,7,20,2023,11,29,6,548,-1966,256,3574,1,7,0,
182,7,20,2023,11,29,6,558,-1976,256,3582,-2,5,3,
183,7,20,2023,11,29,6,568,-1980,251,3578,-4,3,4,
184,7,20,2023,11,29,6,578,-1971,253,3574,-3,5,1,
185,7,20,2023,11,29,6,588,-1968,256,3575,-1,3,1,
186,7,20,2023,11,29,6,598,-1969,254,3581,-4,2,-1,
187,7,20,2023,11,29,6,608,-1973,246,3575,-5,1,-5,
188,7,20,2023,11,29,6,618,-1972,252,3578,-7,1,-1,
189,7,20,2023,11,29,6,628,-1966,253,3586,-3,1,0,
190,7,20,2023,11,29,6,638,-1967,245,3585,-7,3,0,
191,7,20,2023,11,29,6,648,-1971,248,3581,-6,-1,2,
192,7,20,2023,11,29,6,658,-1975,251,3579,-1,-2,4,
193,7,20,2023,11,29,6,668,-1976,255,3578,0,0,2,
194,7,20,2023,11,29,6,678,-1968,257,3571,-4,0,0,
195,7,20,2023,11,29,6,688,-1963,264,3574,-2,-1,2,
196,7,20,2023,11,29,6,698,-1965,251,3581,-4,4,0,
197,7,20,2023,11,29,6,708,-1964,256,3579,-4,3,-3,
198,7,20,2023,11,29,6,718,-1958,253,3577,-3,4,-2,
199,7,20,2023,11,29,6,728,-1967,252,3579,-3,13,0,
200,7,20,2023,11,29,6,738,-1974,253,3582,-4,16,1,
201,7,20,2023,11,29,6,748,-1969,252,3578,-5,14,-2,
202,7,20,2023,11,29,6,758,-1972,248,3578,-3,14,0,
203,7,20,2023,11,29,6,768,-1973,259,3581,-1,9,3,
204,7,20,2023,11,29,6,778,-1969,256,3580,0,10,-1,
205,7,20,2023,11,29,6,788,-1962,258,3576,-3,11,-2,
206,7,20,2023,11,29,6,798,-1964,257,3577,-2,14,0,
207,7,20,2023,11,29,6,808,-1970,257,3568,-4,16,-2,
208,7,20,2023,11,29,6,818,-1975,252,3575,-2,12,0,
209,7,20,2023,11,29,6,828,-1974,257,3577,-4,6,-3,
210,7,20,2023,11,29,6,838,-1967,248,3575,-2,8,0,
211,7,20,2023,11,29,6,848,-1968,258,3581,-2,11,2,
212,7,20,2023,11,29,6,858,-1974,247,3583,-5,11,-3,
213,7,20,2023,11,29,6,868,-1968,245,3574,0,12,-3,
214,7,20,2023,11,29,6,878,-1964,252,3578,3,12,-1,
215,7,20,2023,11,29,6,888,-1970,257,3582,1,15,-1,
216,7,20,2023,11,29,6,898,-1973,253,3580,0,15,-2,
217,7,20,2023,11,29,6,908,-1972,242,3572,4,13,2,
218,7,20,2023,11,29,6,918,-1971,252,3570,5,12,4,
219,7,20,2023,11,29,6,928,-1975,257,3581,1,14,-2,
220,7,20,2023,11,29,6,938,-1981,252,3576,2,9,3,
221,7,20,2023,11,29,6,948,-1970,257,3577,0,3,2,
222,7,20,2023,11,29,6,958,-1968,258,3578,1,1,0,
223,7,20,2023,11,29,6,968,-1973,258,3575,-2,2,0,
224,7,20,2023,11,29,6,978,-1970,257,3581,-2,2,2,
225,7,20,2023,11,29,6,988,-1963,256,3577,-1,4,1,
226,7,20,2023,11,29,6,998,-1974,256,3581,-2,3,-1,
227,7,20,2023,11,29,7,8,-1970,256,3578,-3,1,-1,
228,7,20,2023,11,29,7,18,-1968,252,3581,-2,2,-1,
229,7,20,2023,11,29,7,28,-1975,250,3577,0,6,-1,
230,7,20,2023,11,29,7,38,-1976,246,3582,-6,9,1,
231,7,20,2023,11,29,7,48,-1971,254,3578,-3,9,1,
232,7,20,2023,11,29,7,58,-1965,261,3576,-1,10,1,
233,7,20,2023,11,29,7,68,-1969,259,3569,-6,10,-1,
234,7,20,2023,11,29,7,78,-1973,252,3574,-2,12,-1,
235,7,20,2023,11,29,7,88,-1977,256,3575,0,12,-4,
236,7,20,2023,11,29,7,98,-1974,257,3580,-3,10,-4,
237,7,20,2023,11,29,7,108,-1981,252,3576,-3,11,-1,
238,7,20,2023,11,29,7,118,-1977,255,3580,-4,10,1,
239,7,20,2023,11,29,7,128,-1975,250,3579,-3,8,-2,
240,7,20,2023,11,29,7,138,-1970,254,3582,-2,7,-1,
241,7,20,2023,11,29,7,148,-1966,259,3584,0,11,1,
242,7,20,2023,11,29,7,158,-1976,251,3571,-4,10,-2,
243,7,20,2023,11,29,7,168,-1973,257,3583,-8,13,-5,
244,7,20,2023,11,29,7,178,-1973,257,3577,-6,12,-4,
245,7,20,2023,11,29,7,188,-1973,250,3575,-6,11,-3,
246,7,20,2023,11,29,7,198,-1975,246,3569,1,10,-1,
247,7,20,2023,11,29,7,208,-1968,251,3569,1,11,1,
248,7,20,2023,11,29,7,218,-1977,254,3581,-1,11,0,
249,7,20,2023,11,29,7,228,-1976,255,3573,-1,8,0,
250,7,20,2023,11,29,7,238,-1978,252,3580,0,9,1,
251,7,20,2023,11,29,7,248,-1977,257,3576,-4,11,-5,
252,7,20,2023,11,29,7,258,-1974,254,3576,-6,12,-3,
253,7,20,2023,11,29,7,268,-1974,246,3573,-6,11,-1,
254,7,20,2023,11,29,7,278,-1972,251,3570,-5,12,-3,
255,7,20,2023,11,29,7,288,-1976,247,3578,-4,10,-6,
256,7,20,2023,11,29,7,308,-1974,252,3582,-1,11,-2,
257,7,20,2023,11,29,7,318,-1976,250,3576,-3,12,1,
258,7,20,2023,11,29,7,328,-1983,250,3567,-1,9,4,
259,7,20,2023,11,29,7,338,-1981,256,3576,3,10,6,
260,7,20,2023,11,29,7,348,-1981,256,3581,1,11,1,
261,7,20,2023,11,29,7,358,-1979,248,3578,1,14,0,
262,7,20,2023,11,29,7,368,-1982,250,3568,2,10,4,
263,7,20,2023,11,29,7,378,-1979,244,3581,2,8,1,
264,7,20,2023,11,29,7,388,-1979,249,3576,2,10,1,
265,7,20,2023,11,29,7,398,-1967,251,3566,6,11,3,
266,7,20,2023,11,29,7,408,-1969,249,3569,7,9,5,
267,7,20,2023,11,29,7,418,-1967,256,3575,2,14,3,
268,7,20,2023,11,29,7,428,-1970,252,3578,5,14,3,
269,7,20,2023,11,29,7,438,-1974,251,3562,4,13,2,
270,7,20,2023,11,29,7,448,-1980,257,3571,1,12,1,
271,7,20,2023,11,29,7,458,-1981,257,3576,2,11,3,
272,7,20,2023,11,29,7,468,-1970,259,3569,0,13,5,
273,7,20,2023,11,29,7,478,-1976,253,3566,-6,15,1,
274,7,20,2023,11,29,7,488,-1968,246,3574,-3,18,0,
275,7,20,2023,11,29,7,498,-1959,256,3583,2,22,-3,
276,7,20,2023,11,29,7,508,-1969,260,3581,3,23,-5,
277,7,20,2023,11,29,7,518,-1975,252,3574,2,22,-3,
278,7,20,2023,11,29,7,528,-1968,241,3569,7,24,-1,
279,7,20,2023,11,29,7,538,-1956,257,3563,5,28,-7,
280,7,20,2023,11,29,7,548,-1957,276,3575,-4,34,-15,
281,7,20,2023,11,29,7,558,-1978,229,3572,-5,38,-13,
282,7,20,2023,11,29,7,568,-1967,232,3578,5,49,-11,
283,7,20,2023,11,29,7,578,-1963,247,3573,13,58,-10,
284,7,20,2023,11,29,7,588,-1974,251,3573,15,63,-8,
285,7,20,2023,11,29,7,598,-1982,245,3573,18,69,-3,
286,7,20,2023,11,29,7,608,-1991,249,3579,27,73,1,
287,7,20,2023,11,29,7,618,-1997,262,3571,28,74,5,
288,7,20,2023,11,29,7,628,-1989,260,3576,24,76,4,
289,7,20,2023,11,29,7,638,-1995,253,3565,19,73,2,
290,7,20,2023,11,29,7,648,-2003,244,3562,19,72,2,
291,7,20,2023,11,29,7,658,-2010,258,3565,17,63,3,
292,7,20,2023,11,29,7,668,-2006,261,3561,12,56,0,
293,7,20,2023,11,29,7,678,-2009,261,3562,8,48,-1,
294,7,20,2023,11,29,7,688,-1997,260,3560,1,44,-1,
295,7,20,2023,11,29,7,698,-2004,256,3570,-3,39,-3,
296,7,20,2023,11,29,7,708,-2005,243,3552,1,34,-6,
297,7,20,2023,11,29,7,718,-1999,250,3564,-1,31,-3,
298,7,20,2023,11,29,7,728,-2005,255,3560,-1,30,-3,
299,7,20,2023,11,29,7,738,-2009,243,3566,3,23,-1,
300,7,20,2023,11,29,7,748,-2004,252,3563,3,19,3,
301,7,20,2023,11,29,7,758,-1996,255,3558,3,14,4,
302,7,20,2023,11,29,7,768,-1996,252,3554,-1,7,5,
303,7,20,2023,11,29,7,778,-1989,256,3557,-1,-1,0,
304,7,20,2023,11,29,7,788,-2000,254,3555,-2,0,2,
305,7,20,2023,11,29,7,798,-2005,251,3566,-5,4,-2,
306,7,20,2023,11,29,7,808,-2001,247,3568,-6,5,-3,
307,7,20,2023,11,29,7,818,-2007,245,3568,-3,-1,-2,
308,7,20,2023,11,29,7,828,-2001,243,3558,-4,-5,4,
309,7,20,2023,11,29,7,838,-1989,250,3565,-1,-5,10,
310,7,20,2023,11,29,7,848,-1988,269,3568,3,-7,6,
311,7,20,2023,11,29,7,858,-1997,271,3561,3,-1,1,
312,7,20,2023,11,29,7,868,-1985,258,3564,-1,-1,1,
313,7,20,2023,11,29,7,878,-1990,250,3575,-2,3,1,
314,7,20,2023,11,29,7,888,-1991,251,3569,-1,8,-1,
315,7,20,2023,11,29,7,898,-1981,251,3566,1,11,1,
316,7,20,2023,11,29,7,908,-1994,249,3573,2,16,4,
317,7,20,2023,11,29,7,918,-1995,254,3564,4,18,4,
318,7,20,2023,11,29,7,928,-1991,253,3562,-3,17,1,
319,7,20,2023,11,29,7,938,-1995,254,3565,-4,18,-2,
320,7,20,2023,11,29,7,948,-1998,250,3562,1,16,0,
321,7,20,2023,11,29,7,958,-1999,248,3560,2,17,1,
322,7,20,2023,11,29,7,968,-1999,244,3558,0,12,3,
323,7,20,2023,11,29,7,978,-1998,251,3563,2,10,3,
324,7,20,2023,11,29,7,988,-1989,252,3565,1,9,0,
325,7,20,2023,11,29,7,998,-1997,255,3562,3,9,0,
326,7,20,2023,11,29,8,8,-1995,255,3557,2,5,3,
327,7,20,2023,11,29,8,18,-1997,262,3555,-3,5,3,
328,7,20,2023,11,29,8,28,-1998,251,3561,-8,8,-2,
329,7,20,2023,11,29,8,38,-2002,247,3561,-8,4,-3,
330,7,20,2023,11,29,8,48,-1996,249,3557,-4,2,0,
331,7,20,2023,11,29,8,58,-1998,252,3558,-4,2,2,
332,7,20,2023,11,29,8,68,-1991,251,3568,-3,1,-3,
333,7,20,2023,11,29,8,78,-1983,260,3565,-5,0,-1,
334,7,20,2023,11,29,8,88,-1994,258,3563,-4,4,2,
335,7,20,2023,11,29,8,98,-1997,251,3563,-2,8,1,
336,7,20,2023,11,29,8,108,-1997,249,3560,1,6,3,
337,7,20,2023,11,29,8,118,-2002,258,3555,2,6,4,
338,7,20,2023,11,29,8,128,-2008,256,3562,0,1,3,
339,7,20,2023,11,29,8,138,-2002,258,3567,-2,-1,7,
340,7,20,2023,11,29,8,148,-1998,257,3556,-6,3,2,
341,7,20,2023,11,29,8,168,-1999,253,3562,1,-9,6,
342,7,20,2023,11,29,8,178,-1992,256,3562,-6,-6,3,
343,7,20,2023,11,29,8,188,-1994,251,3557,-9,-7,1,
344,7,20,2023,11,29,8,198,-1989,249,3566,-5,-9,5,
345,7,20,2023,11,29,8,208,-1999,249,3555,-3,-12,4,
346,7,20,2023,11,29,8,218,-1998,255,3561,-4,-13,3,
347,7,20,2023,11,29,8,228,-1993,257,3558,-5,-17,7,
348,7,20,2023,11,29,8,238,-1991,257,3560,-1,-15,10,
349,7,20,2023,11,29,8,248,-1992,257,3563,1,-15,9,
350,7,20,2023,11,29,8,258,-1997,254,3566,-2,-14,4,
351,7,20,2023,11,29,8,268,-1996,252,3566,-4,-19,4,
352,7,20,2023,11,29,8,278,-1995,251,3573,-4,-18,5,
353,7,20,2023,11,29,8,288,-1986,255,3566,0,-20,8,
354,7,20,2023,11,29,8,298,-1988,251,3567,1,-18,14,
355,7,20,2023,11,29,8,308,-1987,243,3570,2,-13,11,
356,7,20,2023,11,29,8,318,-1991,247,3574,3,-11,12,
357,7,20,2023,11,29,8,328,-1991,251,3571,2,-11,16,
358,7,20,2023,11,29,8,338,-1993,261,3563,6,-6,14,
359,7,20,2023,11,29,8,348,-1992,265,3560,6,-6,13,
360,7,20,2023,11,29,8,358,-1991,253,3564,3,-5,8,
361,7,20,2023,11,29,8,368,-1980,262,3570,5,-5,9,
362,7,20,2023,11,29,8,378,-1990,262,3568,5,-2,10,
363,7,20,2023,11,29,8,388,-1987,249,3560,3,-3,5,
364,7,20,2023,11,29,8,398,-1988,254,3567,2,-4,5,
365,7,20,2023,11,29,8,408,-1993,254,3561,1,-11,6,
366,7,20,2023,11,29,8,418,-1995,251,3566,-5,-16,5,
367,7,20,2023,11,29,8,428,-1992,258,3567,-10,-20,1,
368,7,20,2023,11,29,8,438,-1985,253,3565,-10,-24,2,
369,7,20,2023,11,29,8,448,-1984,254,3568,-8,-23,7,
370,7,20,2023,11,29,8,458,-1989,247,3570,-6,-24,7,
371,7,20,2023,11,29,8,468,-1978,250,3576,-4,-28,7,
372,7,20,2023,11,29,8,478,-1981,254,3577,0,-23,9,
373,7,20,2023,11,29,8,488,-1988,249,3572,-2,-16,7,
374,7,20,2023,11,29,8,498,-1980,245,3574,0,-12,6,
375,7,20,2023,11,29,8,508,-1974,249,3564,6,-5,11,
376,7,20,2023,11,29,8,518,-1982,257,3566,7,-2,12,
377,7,20,2023,11,29,8,528,-1983,261,3569,5,-2,11,
378,7,20,2023,11,29,8,538,-1982,260,3569,4,3,8,
379,7,20,2023,11,29,8,548,-1985,254,3577,1,6,7,
380,7,20,2023,11,29,8,558,-1986,260,3577,2,5,3,
381,7,20,2023,11,29,8,568,-1982,259,3581,0,5,4,
382,7,20,2023,11,29,8,578,-1976,258,3570,-6,9,0,
383,7,20,2023,11,29,8,588,-1983,252,3567,-5,16,-1,
384,7,20,2023,11,29,8,598,-1979,254,3559,-4,11,1,
385,7,20,2023,11,29,8,608,-1974,251,3559,-6,12,-5,
386,7,20,2023,11,29,8,618,-1972,255,3565,-6,16,-3,
387,7,20,2023,11,29,8,628,-1985,256,3562,-7,15,-7,
388,7,20,2023,11,29,8,638,-1984,259,3563,-14,14,-7,
389,7,20,2023,11,29,8,648,-1990,263,3566,-18,12,-5,
390,7,20,2023,11,29,8,658,-1985,263,3573,-17,10,-7,
391,7,20,2023,11,29,8,668,-1980,254,3575,-17,11,-12,
392,7,20,2023,11,29,8,678,-1974,258,3563,-18,10,-11,
393,7,20,2023,11,29,8,688,-1981,259,3565,-23,7,-14,
394,7,20,2023,11,29,8,698,-1988,256,3572,-23,10,-18,
395,7,20,2023,11,29,8,708,-1992,246,3564,-25,9,-16,
396,7,20,2023,11,29,8,718,-1984,244,3566,-27,11,-18,
397,7,20,2023,11,29,8,728,-1988,258,3572,-29,9,-20,
398,7,20,2023,11,29,8,738,-1984,245,3572,-30,7,-21,
399,7,20,2023,11,29,8,748,-1983,240,3567,-28,8,-22,
400,7,20,2023,11,29,8,758,-1988,235,3571,-26,8,-19,
401,7,20,2023,11,29,8,768,-1989,237,3578,-21,10,-14,
402,7,20,2023,11,29,8,778,-1994,234,3575,-17,12,-9,
403,7,20,2023,11,29,8,788,-1993,237,3567,-12,15,-9,
404,7,20,2023,11,29,8,798,-1989,235,3572,-7,18,-6,
405,7,20,2023,11,29,8,808,-1993,235,3571,-5,16,1,
406,7,20,2023,11,29,8,818,-1989,242,3575,-2,20,1,
407,7,20,2023,11,29,8,828,-1995,242,3571,-1,15,2,
408,7,20,2023,11,29,8,838,-1985,243,3566,0,15,1,
409,7,20,2023,11,29,8,848,-1988,244,3567,-2,12,0,
410,7,20,2023,11,29,8,858,-1994,243,3562,0,9,2,
411,7,20,2023,11,29,8,868,-1992,247,3571,-2,7,2,
412,7,20,2023,11,29,8,878,-1991,241,3569,-2,4,4,
413,7,20,2023,11,29,8,888,-1982,248,3559,0,2,0,
414,7,20,2023,11,29,8,898,-1986,244,3572,-4,3,-2,
415,7,20,2023,11,29,8,908,-1993,242,3571,-10,4,-2,
416,7,20,2023,11,29,8,918,-1990,237,3564,-9,1,-2,
417,7,20,2023,11,29,8,928,-1993,246,3575,-7,-4,-2,
418,7,20,2023,11,29,8,938,-1990,234,3567,-4,-2,1,
419,7,20,2023,11,29,8,948,-1984,249,3570,1,1,2,
420,7,20,2023,11,29,8,958,-1996,243,3571,-1,-1,2,
421,7,20,2023,11,29,8,968,-1990,239,3570,1,-2,5,
422,7,20,2023,11,29,8,978,-1979,244,3568,3,1,8,
423,7,20,2023,11,29,8,988,-1985,246,3564,4,4,9,
424,7,20,2023,11,29,8,998,-1992,241,3564,10,3,11,
425,7,20,2023,11,29,9,8,-1988,239,3563,3,5,10,
426,7,20,2023,11,29,9,28,-1988,252,3575,5,5,6,
427,7,20,2023,11,29,9,38,-1987,251,3567,-1,1,2,
428,7,20,2023,11,29,9,48,-1991,241,3562,-2,1,3,
429,7,20,2023,11,29,9,58,-1986,250,3572,3,-4,10,
430,7,20,2023,11,29,9,68,-1981,238,3568,1,-3,6,
431,7,20,2023,11,29,9,78,-1991,238,3568,7,-1,9,
432,7,20,2023,11,29,9,88,-1991,240,3579,11,0,9,
433,7,20,2023,11,29,9,98,-1979,246,3575,13,5,7,
434,7,20,2023,11,29,9,108,-1984,243,3566,12,6,12,
435,7,20,2023,11,29,9,118,-1988,243,3567,13,6,9,
436,7,20,2023,11,29,9,128,-1994,253,3566,18,6,15,
437,7,20,2023,11,29,9,138,-1988,254,3567,19,5,15,
438,7,20,2023,11,29,9,148,-1984,251,3574,14,1,16,
439,7,20,2023,11,29,9,158,-1986,257,3571,13,0,11,
440,7,20,2023,11,29,9,168,-1986,254,3568,9,0,11,
441,7,20,2023,11,29,9,178,-1990,252,3560,5,-8,12,
442,7,20,2023,11,29,9,188,-1979,254,3573,3,-4,8,
443,7,20,2023,11,29,9,198,-1984,251,3570,5,-2,5,
444,7,20,2023,11,29,9,208,-1983,245,3575,0,-6,6,
445,7,20,2023,11,29,9,218,-1980,242,3578,-3,1,6,
446,7,20,2023,11,29,9,228,-1982,252,3573,7,3,7,
447,7,20,2023,11,29,9,238,-1978,251,3568,4,4,7,
448,7,20,2023,11,29,9,248,-1977,267,3567,6,5,9,
449,7,20,2023,11,29,9,258,-1980,258,3562,3,7,4,
450,7,20,2023,11,29,9,268,-1982,247,3565,0,12,4,
451,7,20,2023,11,29,9,278,-1988,248,3562,-1,11,0,
452,7,20,2023,11,29,9,288,-1993,247,3572,-3,13,-7,
453,7,20,2023,11,29,9,298,-1991,256,3581,-6,12,0,
454,7,20,2023,11,29,9,308,-1991,253,3568,-7,10,0,
455,7,20,2023,11,29,9,318,-1983,253,3568,-6,10,-2,
456,7,20,2023,11,29,9,328,-1986,253,3569,-6,8,-3,
457,7,20,2023,11,29,9,338,-1992,242,3570,-5,5,0,
458,7,20,2023,11,29,9,348,-1991,261,3559,-6,6,1,
459,7,20,2023,11,29,9,358,-1983,244,3560,-10,5,-3,
460,7,20,2023,11,29,9,368,-1992,244,3564,-11,-2,-4,
461,7,20,2023,11,29,9,378,-1988,245,3570,-8,-2,0,
462,7,20,2023,11,29,9,388,-1987,246,3568,-10,1,-2,
463,7,20,2023,11,29,9,398,-1992,246,3570,-7,2,-1,
464,7,20,2023,11,29,9,408,-1986,242,3576,-4,-2,2,
465,7,20,2023,11,29,9,418,-1997,250,3571,-4,2,5,
466,7,20,2023,11,29,9,428,-1994,237,3565,-3,2,6,
467,7,20,2023,11,29,9,438,-1982,248,3572,0,1,10,
468,7,20,2023,11,29,9,448,-1991,253,3571,0,1,6,
469,7,20,2023,11,29,9,458,-1996,249,3569,-1,-2,3,
470,7,20,2023,11,29,9,468,-1991,251,3565,-5,-5,0,
471,7,20,2023,11,29,9,478,-1987,244,3565,-4,-8,0,
472,7,20,2023,11,29,9,488,-1989,242,3575,-5,-7,2,
473,7,20,2023,11,29,9,498,-1989,246,3568,-8,-8,0,
474,7,20,2023,11,29,9,508,-1989,241,3567,-7,-11,0,
475,7,20,2023,11,29,9,518,-1992,243,3572,-7,-17,6,
476,7,20,2023,11,29,9,528,-1983,249,3567,-6,-18,7,
477,7,20,2023,11,29,9,538,-1984,252,3564,-10,-19,4,
478,7,20,2023,11,29,9,548,-1985,242,3572,-5,-19,1,
479,7,20,2023,11,29,9,558,-1980,245,3570,-3,-21,4,
480,7,20,2023,11,29,9,568,-1982,247,3573,-3,-18,7,
481,7,20,2023,11,29,9,578,-1983,238,3567,-4,-17,9,
482,7,20,2023,11,29,9,588,-1991,249,3571,-5,-21,7,
483,7,20,2023,11,29,9,598,-1976,246,3571,0,-24,11,
484,7,20,2023,11,29,9,608,-1984,243,3573,0,-26,13,
485,7,20,2023,11,29,9,618,-1989,246,3575,-6,-26,7,
486,7,20,2023,11,29,9,628,-1977,246,3570,-4,-32,8,
487,7,20,2023,11,29,9,638,-1977,255,3564,-5,-32,11,
488,7,20,2023,11,29,9,648,-1982,258,3564,-12,-32,7,
489,7,20,2023,11,29,9,658,-1976,251,3576,-14,-31,0,
490,7,20,2023,11,29,9,668,-1971,251,3578,-13,-32,-1,
491,7,20,2023,11,29,9,678,-1977,240,3576,-14,-30,3,
492,7,20,2023,11,29,9,688,-1967,239,3572,-13,-25,0,
493,7,20,2023,11,29,9,698,-1974,247,3572,-10,-22,-1,
494,7,20,2023,11,29,9,708,-1969,238,3581,-3,-14,3,
495,7,20,2023,11,29,9,718,-1972,236,3578,1,-11,5,
496,7,20,2023,11,29,9,728,-1973,240,3570,4,-7,7,
497,7,20,2023,11,29,9,738,-1976,241,3575,4,-5,9,
498,7,20,2023,11,29,9,748,-1974,241,3577,4,-3,13,
499,7,20,2023,11,29,9,758,-1972,242,3580,3,-5,12,
500,7,20,2023,11,29,9,768,-1973,254,3575,8,-9,14,
501,7,20,2023,11,29,9,778,-1972,247,3579,10,-9,15,
502,7,20,2023,11,29,9,788,-1963,252,3577,3,-5,9,
503,7,20,2023,11,29,9,798,-1962,247,3573,3,-4,10,
504,7,20,2023,11,29,9,808,-1960,250,3578,8,2,12,
505,7,20,2023,11,29,9,818,-1965,248,3585,7,6,10,
506,7,20,2023,11,29,9,828,-1970,244,3590,3,7,8,
507,7,20,2023,11,29,9,838,-1971,253,3581,6,12,5,
508,7,20,2023,11,29,9,848,-1962,240,3573,10,19,6,
509,7,20,2023,11,29,9,858,-1969,249,3571,9,22,7,
510,7,20,2023,11,29,9,868,-1975,263,3575,8,24,4,
511,7,20,2023,11,29,9,888,-1975,244,3568,1,24,-1,
512,7,20,2023,11,29,9,898,-1971,250,3581,0,23,6,
513,7,20,2023,11,29,9,908,-1972,253,3578,3,19,5,
514,7,20,2023,11,29,9,918,-1970,249,3570,3,24,-2,
515,7,20,2023,11,29,9,928,-1971,246,3578,3,27,0,
516,7,20,2023,11,29,9,938,-1979,248,3568,2,30,5,
517,7,20,2023,11,29,9,948,-1970,251,3568,3,28,1,
518,7,20,2023,11,29,9,958,-1979,251,3573,6,29,4,
519,7,20,2023,11,29,9,968,-1994,243,3573,5,28,3,
520,7,20,2023,11,29,9,978,-1987,239,3572,7,28,6,
521,7,20,2023,11,29,9,988,-1982,246,3578,12,25,9,
522,7,20,2023,11,29,9,998,-1985,255,3573,12,18,11,
523,7,20,2023,11,29,10,8,-1977,255,3574,10,13,9,
524,7,20,2023,11,29,10,18,-1977,254,3561,7,7,8,
525,7,20,2023,11,29,10,28,-1980,252,3566,5,9,4,
526,7,20,2023,11,29,10,38,-1972,251,3576,5,9,9,
527,7,20,2023,11,29,10,48,-1981,255,3569,2,10,7,
528,7,20,2023,11,29,10,58,-1979,247,3575,2,8,3,
529,7,20,2023,11,29,10,68,-1982,249,3576,3,7,1,
530,7,20,2023,11,29,10,78,-1985,251,3578,5,10,2,
531,7,20,2023,11,29,10,88,-1969,250,3580,1,10,3,
532,7,20,2023,11,29,10,98,-1974,260,3576,5,8,1,
533,7,20,2023,11,29,10,108,-1980,259,3572,4,12,2,
534,7,20,2023,11,29,10,118,-1977,254,3569,3,17,3,
535,7,20,2023,11,29,10,128,-1981,241,3561,3,20,-2,
536,7,20,2023,11,29,10,138,-1977,237,3576,7,17,2,
537,7,20,2023,11,29,10,148,-1975,242,3574,9,18,6,
538,7,20,2023,11,29,10,158,-1974,258,3576,8,21,6,
539,7,20,2023,11,29,10,168,-1980,257,3571,7,21,3,
540,7,20,2023,11,29,10,178,-1997,251,3586,9,21,3,
541,7,20,2023,11,29,10,188,-1997,245,3579,11,22,5,
542,7,20,2023,11,29,10,198,-1983,256,3568,7,19,2,
543,7,20,2023,11,29,10,208,-1987,254,3570,1,13,2,
544,7,20,2023,11,29,10,218,-1986,253,3572,5,11,4,
545,7,20,2023,11,29,10,228,-1976,252,3571,-1,13,3,
546,7,20,2023,11,29,10,238,-1976,272,3580,-2,15,3,
547,7,20,2023,11,29,10,248,-1971,262,3576,-8,22,-1,
548,7,20,2023,11,29,10,258,-1973,264,3578,-14,30,-12,
549,7,20,2023,11,29,10,268,-1989,264,3575,-17,38,-15,
550,7,20,2023,11,29,10,278,-1979,253,3567,-23,39,-19,
551,7,20,2023,11,29,10,288,-1972,257,3557,-30,42,-24,
552,7,20,2023,11,29,10,298,-1988,258,3572,-30,47,-23,
553,7,20,2023,11,29,10,308,-2003,249,3578,-31,45,-21,
554,7,20,2023,11,29,10,318,-1985,240,3565,-28,36,-19,
555,7,20,2023,11,29,10,328,-1981,243,3560,-23,37,-17,
556,7,20,2023,11,29,10,338,-2003,240,3572,-22,38,-17,
557,7,20,2023,11,29,10,348,-2004,240,3572,-16,33,-12,
558,7,20,2023,11,29,10,358,-1981,234,3560,-14,30,-9,
559,7,20,2023,11,29,10,368,-1989,241,3562,-10,28,-9,
560,7,20,2023,11,29,10,378,-1997,227,3568,-7,25,-6,
561,7,20,2023,11,29,10,388,-1988,234,3559,-2,21,1,
562,7,20,2023,11,29,10,398,-1994,239,3561,5,15,5,
563,7,20,2023,11,29,10,408,-2003,245,3573,2,12,3,
564,7,20,2023,11,29,10,418,-1999,239,3571,2,8,8,
565,7,20,2023,11,29,10,428,-1985,245,3565,5,7,7,
566,7,20,2023,11,29,10,438,-1994,240,3574,5,10,5,
567,7,20,2023,11,29,10,448,-1992,237,3572,4,12,6,
568,7,20,2023,11,29,10,458,-1985,242,3566,7,13,5,
569,7,20,2023,11,29,10,468,-1991,245,3568,7,15,9,
570,7,20,2023,11,29,10,478,-1992,247,3562,4,11,9,
571,7,20,2023,11,29,10,488,-1986,243,3566,3,8,7,
572,7,20,2023,11,29,10,498,-1996,243,3568,5,12,10,
573,7,20,2023,11,29,10,508,-1996,239,3569,7,12,10,
574,7,20,2023,11,29,10,518,-1986,251,3564,12,15,5,
575,7,20,2023,11,29,10,528,-1992,249,3570,9,17,4,
576,7,20,2023,11,29,10,538,-1999,248,3567,4,18,6,
577,7,20,2023,11,29,10,548,-1995,239,3571,2,20,5,
578,7,20,2023,11,29,10,558,-1989,241,3564,3,22,7,
579,7,20,2023,11,29,10,568,-1988,246,3558,2,24,9,
580,7,20,2023,11,29,10,578,-1993,240,3558,5,28,8,
581,7,20,2023,11,29,10,588,-1999,247,3570,2,34,7,
582,7,20,2023,11,29,10,598,-1991,250,3558,9,28,12,
583,7,20,2023,11,29,10,608,-1996,246,3557,12,26,15,
584,7,20,2023,11,29,10,618,-2001,238,3557,10,24,14,
585,7,20,2023,11,29,10,628,-2001,244,3560,9,24,12,
586,7,20,2023,11,29,10,638,-2005,260,3561,12,17,16,
587,7,20,2023,11,29,10,648,-2004,253,3560,8,12,16,
588,7,20,2023,11,29,10,658,-2002,252,3559,6,9,12,
589,7,20,2023,11,29,10,668,-1992,246,3567,6,5,18,
590,7,20,2023,11,29,10,678,-1990,251,3563,9,2,16,
591,7,20,2023,11,29,10,688,-1988,267,3563,4,7,12,
592,7,20,2023,11,29,10,698,-1975,263,3570,2,13,8,
593,7,20,2023,11,29,10,708,-1976,250,3574,-6,25,2,
594,7,20,2023,11,29,10,718,-2001,235,3564,-7,34,4,
595,7,20,2023,11,29,10,728,-2003,240,3558,1,39,3,
596,7,20,2023,11,29,10,748,-2003,267,3552,-2,31,8,
597,7,20,2023,11,29,10,758,-2006,261,3549,0,24,3,
598,7,20,2023,11,29,10,768,-2008,255,3553,-4,19,0,
599,7,20,2023,11,29,10,778,-2015,252,3559,-8,13,-4,
600,7,20,2023,11,29,10,788,-2017,249,3559,-7,5,-4,
601,7,20,2023,11,29,10,798,-2000,242,3562,-4,2,-2,
602,7,20,2023,11,29,10,808,-2002,239,3570,-2,7,3,
603,7,20,2023,11,29,10,818,-1994,232,3558,3,14,6,
604,7,20,2023,11,29,10,828,-2003,239,3553,9,14,7,
605,7,20,2023,11,29,10,838,-1997,238,3564,14,19,10,
606,7,20,2023,11,29,10,848,-1995,246,3563,12,23,12,
607,7,20,2023,11,29,10,858,-1998,257,3547,15,23,12,
608,7,20,2023,11,29,10,868,-1993,267,3553,13,20,9,
609,7,20,2023,11,29,10,878,-2003,252,3562,14,17,7,
610,7,20,2023,11,29,10,888,-1996,256,3559,14,19,11,
611,7,20,2023,11,29,10,898,-1984,261,3569,13,27,9,
612,7,20,2023,11,29,10,908,-1993,254,3568,9,36,2,
613,7,20,2023,11,29,10,918,-2004,266,3551,4,41,0,
614,7,20,2023,11,29,10,928,-2009,259,3541,1,39,-3,
615,7,20,2023,11,29,10,938,-2015,239,3556,-1,30,-6,
616,7,20,2023,11,29,10,948,-2012,239,3550,-5,18,-6,
617,7,20,2023,11,29,10,958,-2016,254,3557,-2,11,-3,
618,7,20,2023,11,29,10,968,-1998,255,3560,-4,7,-4,
619,7,20,2023,11,29,10,978,-2007,245,3562,-4,8,-5,
620,7,20,2023,11,29,10,988,-2012,243,3558,1,8,-1,
621,7,20,2023,11,29,10,998,-2007,248,3562,7,9,2,
622,7,20,2023,11,29,11,8,-2006,242,3555,9,11,1,
623,7,20,2023,11,29,11,18,-1997,257,3559,9,9,3,
624,7,20,2023,11,29,11,28,-2008,254,3559,9,10,2,
625,7,20,2023,11,29,11,38,-2012,231,3556,9,14,3,
626,7,20,2023,11,29,11,48,-2011,238,3554,14,15,7,
627,7,20,2023,11,29,11,58,-2029,255,3556,15,12,8,
628,7,20,2023,11,29,11,68,-2030,236,3558,13,6,11,
629,7,20,2023,11,29,11,78,-2032,245,3551,13,3,13,
630,7,20,2023,11,29,11,88,-2013,262,3562,14,0,19,
631,7,20,2023,11,29,11,98,-1996,269,3551,10,-1,19,
632,7,20,2023,11,29,11,108,-1995,274,3556,8,-4,15,
633,7,20,2023,11,29,11,118,-2007,271,3551,2,-10,13,
634,7,20,2023,11,29,11,128,-2013,270,3549,-3,-11,7,
635,7,20,2023,11,29,11,138,-2013,251,3565,-5,-13,2,
636,7,20,2023,11,29,11,148,-2012,246,3567,-6,-17,3,
637,7,20,2023,11,29,11,158,-2001,254,3560,-3,-16,6,
638,7,20,2023,11,29,11,168,-2011,253,3558,1,-17,6,
639,7,20,2023,11,29,11,178,-2012,248,3554,0,-16,8,
640,7,20,2023,11,29,11,188,-2014,250,3553,1,-18,7,
641,7,20,2023,11,29,11,198,-2010,255,3563,0,-21,7,
642,7,20,2023,11,29,11,208,-2008,248,3556,-2,-26,10,
643,7,20,2023,11,29,11,218,-2003,253,3556,-2,-28,12,
644,7,20,2023,11,29,11,228,-2010,252,3572,-1,-29,11,
645,7,20,2023,11,29,11,238,-2013,251,3561,-1,-33,12,
646,7,20,2023,11,29,11,248,-2009,259,3558,-1,-38,15,
647,7,20,2023,11,29,11,258,-2021,255,3568,-1,-48,16,
648,7,20,2023,11,29,11,268,-2017,246,3567,-1,-56,15,
649,7,20,2023,11,29,11,278,-1990,255,3574,-3,-57,20,
650,7,20,2023,11,29,11,288,-1991,255,3557,-1,-53,19,
651,7,20,2023,11,29,11,298,-2002,254,3558,-1,-52,19,
652,7,20,2023,11,29,11,308,-1989,253,3565,1,-49,20,
653,7,20,2023,11,29,11,318,-2005,240,3572,4,-48,19,
654,7,20,2023,11,29,11,328,-2001,251,3573,5,-56,27,
655,7,20,2023,11,29,11,338,-2000,253,3567,6,-56,31,
656,7,20,2023,11,29,11,348,-1993,252,3563,4,-58,30,
657,7,20,2023,11,29,11,358,-1991,259,3570,6,-62,31,
658,7,20,2023,11,29,11,368,-1995,262,3562,10,-63,30,
659,7,20,2023,11,29,11,378,-1990,269,3561,8,-67,31,
660,7,20,2023,11,29,11,388,-1979,257,3567,3,-69,25,
661,7,20,2023,11,29,11,398,-1978,252,3558,0,-71,29,
662,7,20,2023,11,29,11,408,-1964,264,3558,-1,-72,25,
663,7,20,2023,11,29,11,418,-1945,283,3577,-5,-65,19,
664,7,20,2023,11,29,11,428,-1971,276,3576,-8,-59,10,
665,7,20,2023,11,29,11,438,-1966,245,3579,-13,-51,5,
666,7,20,2023,11,29,11,448,-1977,246,3571,-14,-50,9,
667,7,20,2023,11,29,11,458,-1973,265,3580,-11,-48,7,
668,7,20,2023,11,29,11,468,-1954,266,3577,-15,-44,3,
669,7,20,2023,11,29,11,478,-1958,265,3576,-33,-30,-5,
670,7,20,2023,11,29,11,488,-1951,253,3584,-49,-20,-13,
671,7,20,2023,11,29,11,498,-1967,260,3575,-47,-8,-16,
672,7,20,2023,11,29,11,508,-1964,266,3573,-49,0,-18,
673,7,20,2023,11,29,11,518,-1969,269,3585,-49,4,-18,
674,7,20,2023,11,29,11,528,-1968,266,3587,-42,5,-20,
675,7,20,2023,11,29,11,538,-1961,255,3589,-40,14,-19,
676,7,20,2023,11,29,11,548,-1967,243,3581,-32,20,-14,
677,7,20,2023,11,29,11,558,-1971,242,3587,-23,29,-9,
678,7,20,2023,11,29,11,568,-1970,240,3577,-17,39,-7,
679,7,20,2023,11,29,11,578,-1968,232,3572,-7,43,-3,
680,7,20,2023,11,29,11,588,-1971,239,3573,-8,49,2,
681,7,20,2023,11,29,11,608,-1969,247,3564,12,45,13,
682,7,20,2023,11,29,11,618,-1982,277,3573,11,40,12,
683,7,20,2023,11,29,11,628,-1980,268,3579,5,33,8,
684,7,20,2023,11,29,11,638,-1981,249,3573,2,31,0,
685,7,20,2023,11,29,11,648,-1987,259,3563,1,24,0,
686,7,20,2023,11,29,11,658,-1991,260,3552,-4,14,-1,
687,7,20,2023,11,29,11,668,-2004,258,3550,-11,-4,-2,
688,7,20,2023,11,29,11,678,-1985,252,3564,-14,-29,-2,
689,7,20,2023,11,29,11,688,-1976,248,3569,-17,-36,-4,
690,7,20,2023,11,29,11,698,-1987,246,3587,-19,-34,-5,
691,7,20,2023,11,29,11,708,-1980,241,3586,-16,-33,-5,
692,7,20,2023,11,29,11,718,-1975,229,3588,-6,-21,1,
693,7,20,2023,11,29,11,728,-1978,237,3584,3,-7,9,
694,7,20,2023,11,29,11,738,-1965,235,3590,9,2,10,
695,7,20,2023,11,29,11,748,-1963,239,3588,14,12,13,
696,7,20,2023,11,29,11,758,-1970,251,3573,16,29,16,
697,7,20,2023,11,29,11,768,-1974,250,3575,14,27,16,
698,7,20,2023,11,29,11,778,-1968,257,3568,15,23,17,
699,7,20,2023,11,29,11,788,-1978,271,3556,10,26,11,
700,7,20,2023,11,29,11,798,-1988,268,3569,4,21,4,
701,7,20,2023,11,29,11,808,-1991,260,3567,-2,14,-3,
702,7,20,2023,11,29,11,818,-1990,257,3562,-8,8,-6,
703,7,20,2023,11,29,11,828,-1982,241,3570,-8,3,-5,
704,7,20,2023,11,29,11,838,-1982,234,3573,-10,4,-6,
705,7,20,2023,11,29,11,848,-1980,241,3569,-7,7,-6,
706,7,20,2023,11,29,11,858,-1981,240,3574,-4,7,2,
707,7,20,2023,11,29,11,868,-1993,238,3578,1,5,4,
708,7,20,2023,11,29,11,878,-1984,240,3573,5,-1,5,
709,7,20,2023,11,29,11,888,-1974,250,3572,7,-6,10,
710,7,20,2023,11,29,11,898,-1974,261,3571,7,-10,14,
711,7,20,2023,11,29,11,908,-1972,263,3572,2,-13,8,
712,7,20,2023,11,29,11,918,-1970,265,3570,1,-13,4,
713,7,20,2023,11,29,11,928,-1976,262,3570,-8,-17,2,
714,7,20,2023,11,29,11,938,-1984,253,3572,-11,-22,-7,
715,7,20,2023,11,29,11,948,-1981,247,3572,-14,-20,-6,
716,7,20,2023,11,29,11,958,-1966,241,3584,-8,-13,-2,
717,7,20,2023,11,29,11,968,-1969,248,3582,-6,-12,1,
718,7,20,2023,11,29,11,978,-1968,246,3569,-1,-6,2,
719,7,20,2023,11,29,11,988,-1973,251,3571,-4,5,0,
720,7,20,2023,11,29,11,998,-1971,245,3567,-4,7,0,
721,7,20,2023,11,29,12,8,-1983,242,3579,-2,3,1,
722,7,20,2023,11,29,12,18,-1984,249,3575,2,3,5,
723,7,20,2023,11,29,12,28,-1979,255,3574,4,0,5,
724,7,20,2023,11,29,12,38,-1972,254,3568,0,-6,5,
725,7,20,2023,11,29,12,48,-1977,257,3566,1,-9,5,
726,7,20,2023,11,29,12,58,-1978,256,3581,-3,-9,1,
727,7,20,2023,11,29,12,68,-1975,243,3581,-4,-8,-1,
728,7,20,2023,11,29,12,78,-1972,241,3577,-5,-2,-2,
729,7,20,2023,11,29,12,88,-1972,253,3585,-3,4,-1,
730,7,20,2023,11,29,12,98,-1970,247,3584,-2,10,0,
731,7,20,2023,11,29,12,108,-1974,248,3568,-1,19,-2,
732,7,20,2023,11,29,12,118,-1976,243,3575,3,20,-3,
733,7,20,2023,11,29,12,128,-1979,246,3578,2,16,-4,
734,7,20,2023,11,29,12,138,-1981,241,3569,4,17,4,
735,7,20,2023,11,29,12,148,-1985,241,3565,6,17,4,
736,7,20,2023,11,29,12,158,-1984,242,3571,8,10,6,
737,7,20,2023,11,29,12,168,-1979,262,3573,7,6,6,
738,7,20,2023,11,29,12,178,-1978,272,3578,3,5,7,
739,7,20,2023,11,29,12,188,-1975,250,3584,-2,4,6,
740,7,20,2023,11,29,12,198,-1973,251,3580,0,3,3,
741,7,20,2023,11,29,12,208,-1970,260,3578,-4,8,-2,
742,7,20,2023,11,29,12,218,-1974,231,3569,-3,10,-5,
743,7,20,2023,11,29,12,228,-1971,219,3575,6,10,7,
744,7,20,2023,11,29,12,238,-1992,251,3578,13,9,7,
745,7,20,2023,11,29,12,248,-1980,263,3562,8,5,8,
746,7,20,2023,11,29,12,258,-1972,250,3576,5,1,11,
747,7,20,2023,11,29,12,268,-1986,248,3581,5,3,12,
748,7,20,2023,11,29,12,278,-1969,252,3581,8,9,13,
749,7,20,2023,11,29,12,288,-1955,258,3579,8,17,13,
750,7,20,2023,11,29,12,298,-1951,252,3582,6,30,9,
751,7,20,2023,11,29,12,308,-1964,251,3564,1,37,2,
752,7,20,2023,11,29,12,318,-1966,270,3561,3,37,-3,
753,7,20,2023,11,29,12,328,-1970,273,3562,-5,38,-5,
754,7,20,2023,11,29,12,338,-1983,259,3565,-10,32,-14,
755,7,20,2023,11,29,12,348,-1983,246,3566,-15,26,-18,
756,7,20,2023,11,29,12,358,-1977,242,3574,-13,23,-13,
757,7,20,2023,11,29,12,368,-1976,245,3577,-10,24,-12,
758,7,20,2023,11,29,12,378,-1974,242,3570,-4,28,-7,
759,7,20,2023,11,29,12,388,-1975,230,3572,-2,33,-12,
760,7,20,2023,11,29,12,398,-1993,231,3550,0,31,-7,
761,7,20,2023,11,29,12,408,-2003,244,3540,1,20,-4,
762,7,20,2023,11,29,12,418,-2016,253,3558,1,-7,-10,
763,7,20,2023,11,29,12,428,-1979,257,3594,-7,-18,-9,
764,7,20,2023,11,29,12,438,-1970,223,3596,-5,4,0,
765,7,20,2023,11,29,12,448,-1991,232,3593,10,23,7,
766,7,20,2023,11,29,12,468,-1973,246,3582,20,46,15,
767,7,20,2023,11,29,12,478,-1990,238,3574,24,56,16,
768,7,20,2023,11,29,12,488,-1958,223,3582,30,66,18,
769,7,20,2023,11,29,12,498,-1981,237,3577,36,81,25,
770,7,20,2023,11,29,12,508,-1993,244,3574,42,89,25,
771,7,20,2023,11,29,12,518,-2001,260,3560,43,89,23,
772,7,20,2023,11,29,12,528,-2005,277,3551,35,79,22,
773,7,20,2023,11,29,12,538,-1994,293,3546,25,63,17,
774,7,20,2023,11,29,12,548,-1982,293,3550,12,50,5,
775,7,20,2023,11,29,12,558,-1998,276,3559,0,41,-6,
776,7,20,2023,11,29,12,568,-2005,258,3556,-10,37,-13,
777,7,20,2023,11,29,12,578,-1998,254,3557,-15,31,-16,
778,7,20,2023,11,29,12,588,-1999,249,3563,-17,26,-19,
779,7,20,2023,11,29,12,598,-2011,240,3553,-12,23,-18,
780,7,20,2023,11,29,12,608,-2014,252,3565,-12,16,-14,
781,7,20,2023,11,29,12,618,-2010,256,3551,-11,6,-13,
782,7,20,2023,11,29,12,628,-2005,270,3553,-16,-4,-6,
783,7,20,2023,11,29,12,638,-2010,260,3553,-19,-13,-8,
784,7,20,2023,11,29,12,648,-1998,246,3565,-25,-18,-16,
785,7,20,2023,11,29,12,658,-1994,245,3570,-22,-16,-13,
786,7,20,2023,11,29,12,668,-1999,256,3563,-22,-14,-13,
787,7,20,2023,11,29,12,678,-1995,249,3558,-23,-14,-16,
788,7,20,2023,11,29,12,688,-1989,247,3560,-24,-13,-17,
789,7,20,2023,11,29,12,698,-1983,248,3562,-26,-11,-16,
790,7,20,2023,11,29,12,708,-2001,237,3567,-25,-12,-15,
791,7,20,2023,11,29,12,718,-1995,258,3566,-25,-15,-16,
792,7,20,2023,11,29,12,728,-1992,264,3570,-27,-12,-18,
793,7,20,2023,11,29,12,738,-1999,243,3572,-29,-10,-15,
794,7,20,2023,11,29,12,748,-2000,233,3569,-25,-9,-16,
795,7,20,2023,11,29,12,758,-1990,225,3571,-26,-9,-10,
796,7,20,2023,11,29,12,768,-1997,221,3572,-19,-7,-7,
797,7,20,2023,11,29,12,778,-1996,228,3576,-11,-4,-5,
798,7,20,2023,11,29,12,788,-1991,233,3570,-9,-1,-2,
799,7,20,2023,11,29,12,798,-1991,235,3569,-4,-4,1,
800,7,20,2023,11,29,12,808,-1989,246,3567,1,2,6,
801,7,20,2023,11,29,12,818,-1987,253,3557,1,-1,2,
802,7,20,2023,11,29,12,828,-1994,248,3556,-4,-8,-1,
803,7,20,2023,11,29,12,838,-2001,252,3548,-14,-19,-2,
804,7,20,2023,11,29,12,848,-2002,246,3559,-17,-29,-9,
805,7,20,2023,11,29,12,858,-1972,241,3572,-16,-32,-7,
806,7,20,2023,11,29,12,868,-1975,232,3589,-17,-22,-9,
807,7,20,2023,11,29,12,878,-1992,220,3583,-8,-13,-3,
808,7,20,2023,11,29,12,888,-1983,218,3575,1,-3,5,
809,7,20,2023,11,29,12,898,-1975,225,3571,7,7,8,
810,7,20,2023,11,29,12,908,-1986,225,3565,14,10,12,
811,7,20,2023,11,29,12,918,-1987,226,3580,20,21,20,
812,7,20,2023,11,29,12,928,-1998,233,3561,25,22,24,
813,7,20,2023,11,29,12,938,-1999,238,3560,25,18,23,
814,7,20,2023,11,29,12,948,-1993,242,3561,25,11,24,
815,7,20,2023,11,29,12,958,-2002,256,3550,22,3,26,
816,7,20,2023,11,29,12,968,-1996,266,3555,16,-8,19,
817,7,20,2023,11,29,12,978,-1985,265,3567,12,-18,12,
818,7,20,2023,11,29,12,988,-1980,251,3563,6,-23,10,
819,7,20,2023,11,29,12,998,-1984,252,3560,2,-28,8,
820,7,20,2023,11,29,13,8,-1991,252,3564,-3,-37,10,
821,7,20,2023,11,29,13,18,-1994,254,3561,-4,-46,7,
822,7,20,2023,11,29,13,28,-1992,256,3558,-10,-48,4,
823,7,20,2023,11,29,13,38,-1987,241,3564,-11,-55,7,
824,7,20,2023,11,29,13,48,-1997,233,3573,-12,-59,8,
825,7,20,2023,11,29,13,58,-1989,247,3567,-5,-64,9,
826,7,20,2023,11,29,13,68,-1989,256,3579,-10,-71,10,
827,7,20,2023,11,29,13,78,-1962,253,3610,-12,-64,9,
828,7,20,2023,11,29,13,88,-1956,246,3599,-4,-40,11,
829,7,20,2023,11,29,13,98,-1954,231,3592,2,-10,13,
830,7,20,2023,11,29,13,108,-1946,235,3595,8,15,18,
831,7,20,2023,11,29,13,118,-1957,239,3588,19,39,22,
832,7,20,2023,11,29,13,128,-1956,241,3575,26,58,22,
833,7,20,2023,11,29,13,138,-1955,247,3567,26,65,23,
834,7,20,2023,11,29,13,148,-1980,247,3564,22,70,19,
835,7,20,2023,11,29,13,158,-1987,253,3562,16,57,10,
836,7,20,2023,11,29,13,168,-1986,248,3558,9,44,6,
837,7,20,2023,11,29,13,178,-1994,268,3553,8,28,7,
838,7,20,2023,11,29,13,188,-2002,274,3563,0,15,1,
839,7,20,2023,11,29,13,198,-1995,281,3552,-7,1,-7,
840,7,20,2023,11,29,13,208,-1987,271,3561,-21,-6,-14,
841,7,20,2023,11,29,13,218,-1994,246,3563,-27,-10,-17,
842,7,20,2023,11,29,13,228,-1990,240,3570,-30,-17,-18,
843,7,20,2023,11,29,13,238,-1988,224,3581,-26,-18,-12,
844,7,20,2023,11,29,13,248,-1995,226,3578,-22,-14,-4,
845,7,20,2023,11,29,13,258,-1985,226,3574,-12,-12,2,
846,7,20,2023,11,29,13,268,-1978,226,3574,0,-15,7,
847,7,20,2023,11,29,13,278,-1978,230,3575,9,-15,11,
848,7,20,2023,11,29,13,288,-1973,245,3574,13,-12,19,
849,7,20,2023,11,29,13,298,-1980,259,3580,10,-8,17,
850,7,20,2023,11,29,13,308,-1973,260,3573,7,-8,15,
851,7,20,2023,11,29,13,328,-1976,253,3581,-2,-8,4,
852,7,20,2023,11,29,13,338,-1969,251,3573,-4,-6,-2,
853,7,20,2023,11,29,13,348,-1978,247,3574,-6,0,-2,
854,7,20,2023,11,29,13,358,-1974,251,3581,-9,3,-5,
855,7,20,2023,11,29,13,368,-1982,241,3572,-11,0,-6,
856,7,20,2023,11,29,13,378,-1986,240,3571,-8,-1,-5,
857,7,20,2023,11,29,13,388,-1979,245,3572,-5,3,4,
858,7,20,2023,11,29,13,398,-1981,248,3571,-3,7,4,
859,7,20,2023,11,29,13,408,-1986,240,3569,-3,6,1,
860,7,20,2023,11,29,13,418,-1989,249,3567,-3,-7,3,
861,7,20,2023,11,29,13,428,-1986,252,3570,-10,-9,6,
862,7,20,2023,11,29,13,438,-1974,257,3569,-8,-16,1,
863,7,20,2023,11,29,13,448,-1965,263,3571,-12,-18,-1,
864,7,20,2023,11,29,13,458,-1971,255,3564,-16,-18,-4,
865,7,20,2023,11,29,13,468,-1974,241,3571,-17,-16,-8,
866,7,20,2023,11,29,13,478,-1970,234,3576,-21,-9,-9,
867,7,20,2023,11,29,13,488,-1971,224,3584,-17,-8,-10,
868,7,20,2023,11,29,13,498,-1977,233,3578,-12,-8,-7,
869,7,20,2023,11,29,13,508,-1977,233,3578,-3,-8,-4,
870,7,20,2023,11,29,13,518,-1970,232,3582,5,1,4,
871,7,20,2023,11,29,13,528,-1970,248,3585,7,3,3,
872,7,20,2023,11,29,13,538,-1981,238,3580,8,5,7,
873,7,20,2023,11,29,13,548,-1983,239,3568,14,2,10,
874,7,20,2023,11,29,13,558,-1981,235,3575,16,5,9,
875,7,20,2023,11,29,13,568,-1985,247,3579,15,1,11,
876,7,20,2023,11,29,13,578,-1983,249,3568,12,-11,12,
877,7,20,2023,11,29,13,588,-1987,229,3571,12,-11,9,
878,7,20,2023,11,29,13,598,-1980,241,3574,18,-14,15,
879,7,20,2023,11,29,13,608,-1983,238,3579,23,-18,21,
880,7,20,2023,11,29,13,618,-1989,234,3575,20,-20,21,
881,7,20,2023,11,29,13,628,-1983,247,3581,22,-23,21,
882,7,20,2023,11,29,13,638,-1981,243,3580,25,-27,24,
883,7,20,2023,11,29,13,648,-1982,232,3575,25,-29,26,
884,7,20,2023,11,29,13,658,-1979,245,3581,26,-28,31,
885,7,20,2023,11,29,13,668,-1966,252,3584,28,-25,30,
886,7,20,2023,11,29,13,678,-1974,253,3579,29,-22,28,
887,7,20,2023,11,29,13,688,-1974,242,3583,27,-15,30,
888,7,20,2023,11,29,13,698,-1979,249,3584,30,-8,33,
889,7,20,2023,11,29,13,708,-1985,249,3590,35,-5,36,
890,7,20,2023,11,29,13,718,-1989,251,3591,41,-4,37,
891,7,20,2023,11,29,13,728,-1988,259,3582,39,-4,41,
892,7,20,2023,11,29,13,738,-1994,253,3576,41,-9,43,
893,7,20,2023,11,29,13,748,-1986,246,3582,39,-16,47,
894,7,20,2023,11,29,13,758,-1990,262,3582,39,-22,53,
895,7,20,2023,11,29,13,768,-1998,272,3579,35,-27,52,
896,7,20,2023,11,29,13,778,-1994,254,3585,32,-32,54,
897,7,20,2023,11,29,13,788,-1990,262,3592,31,-44,55,
898,7,20,2023,11,29,13,798,-1988,247,3592,34,-47,58,
899,7,20,2023,11,29,13,808,-1980,276,3583,34,-43,60,
900,7,20,2023,11,29,13,818,-1963,267,3575,28,-40,52,
901,7,20,2023,11,29,13,828,-1915,271,3570,33,-33,45,
902,7,20,2023,11,29,13,838,-1903,321,3592,34,-12,39,
903,7,20,2023,11,29,13,848,-1906,268,3602,24,14,33,
904,7,20,2023,11,29,13,858,-1925,243,3598,26,44,38,
905,7,20,2023,11,29,13,868,-1928,260,3609,40,83,46,
906,7,20,2023,11,29,13,878,-1933,278,3614,48,124,48,
907,7,20,2023,11,29,13,888,-1939,273,3610,50,172,55,
908,7,20,2023,11,29,13,898,-1917,277,3613,53,217,53,
909,7,20,2023,11,29,13,908,-1939,336,3597,54,274,49,
910,7,20,2023,11,29,13,918,-1863,245,3648,63,356,44,
911,7,20,2023,11,29,13,928,-1827,292,3631,66,456,48,
912,7,20,2023,11,29,13,938,-1804,348,3628,70,588,38,
913,7,20,2023,11,29,13,948,-1731,365,3677,61,742,11,
914,7,20,2023,11,29,13,958,-1668,356,3696,39,945,-19,
915,7,20,2023,11,29,13,968,-1666,286,3723,48,1205,-60,
916,7,20,2023,11,29,13,978,-1562,9,3788,199,1508,-144,
917,7,20,2023,11,29,13,988,-1408,772,4101,517,1913,-291,
918,7,20,2023,11,29,13,998,-1457,845,4011,205,2461,-346,
919,7,20,2023,11,29,14,8,-1666,231,4043,37,3026,-450,
920,7,20,2023,11,29,14,18,-1771,571,4094,113,3582,-693,
921,7,20,2023,11,29,14,28,-1756,575,3989,158,4278,-988,
922,7,20,2023,11,29,14,38,-2070,781,4247,196,5038,-1429,
923,7,20,2023,11,29,14,48,-2567,1104,4507,125,5604,-1834,
924,7,20,2023,11,29,14,58,-2863,1069,4639,-53,5909,-1995,
925,7,20,2023,11,29,14,68,-3143,916,4784,-194,6000,-2106,
926,7,20,2023,11,29,14,78,-2897,883,4575,-205,5919,-2166,
927,7,20,2023,11,29,14,88,-2300,1409,5173,-149,5783,-2144,
928,7,20,2023,11,29,14,98,-1430,2136,6330,-213,5178,-2051,
929,7,20,2023,11,29,14,108,-87,3194,6367,-914,4207,-1954,
930,7,20,2023,11,29,14,118,-1217,2429,7309,-1526,3180,-1381,
931,7,20,2023,11,29,14,128,-54,2179,7060,-1230,1384,-565,
932,7,20,2023,11,29,14,138,1470,2372,5758,-694,-121,214,
933,7,20,2023,11,29,14,148,2187,2149,4912,-405,-758,759,
934,7,20,2023,11,29,14,158,2109,1505,4831,-165,-1019,1101,
935,7,20,2023,11,29,14,168,1654,994,5169,319,-1403,1369,
936,7,20,2023,11,29,14,188,1150,860,5312,1351,-2726,1629,
937,7,20,2023,11,29,14,198,925,822,5215,1525,-3328,1628,
938,7,20,2023,11,29,14,208,600,677,5151,1536,-3814,1605,
939,7,20,2023,11,29,14,218,135,550,5207,1535,-4212,1601,
940,7,20,2023,11,29,14,228,-501,471,5351,1588,-4580,1634,
941,7,20,2023,11,29,14,238,-1118,479,5442,1658,-4982,1697,
942,7,20,2023,11,29,14,248,-1718,643,5502,1712,-5369,1790,
943,7,20,2023,11,29,14,258,-2266,886,5436,1701,-5735,1920,
944,7,20,2023,11,29,14,268,-2679,999,5221,1560,-6024,2114,
945,7,20,2023,11,29,14,278,-2992,834,4986,1364,-6163,2337,
946,7,20,2023,11,29,14,288,-3382,442,4841,1269,-6143,2552,
947,7,20,2023,11,29,14,298,-3800,92,4782,1349,-6061,2730,
948,7,20,2023,11,29,14,308,-3997,157,4709,1488,-6021,2809,
949,7,20,2023,11,29,14,318,-4132,390,4584,1427,-5964,2747,
950,7,20,2023,11,29,14,328,-4193,481,4395,1094,-5864,2571,
951,7,20,2023,11,29,14,338,-4257,357,4231,675,-5709,2379,
952,7,20,2023,11,29,14,348,-4401,152,4121,423,-5567,2260,
953,7,20,2023,11,29,14,358,-4392,123,3910,360,-5501,2226,
954,7,20,2023,11,29,14,368,-4252,189,3559,334,-5439,2251,
955,7,20,2023,11,29,14,378,-4377,150,3178,268,-5315,2288,
956,7,20,2023,11,29,14,388,-4747,56,2848,203,-5149,2262,
957,7,20,2023,11,29,14,398,-5014,-93,2393,197,-4980,2176,
958,7,20,2023,11,29,14,408,-5248,-252,1818,292,-4756,2053,
959,7,20,2023,11,29,14,418,-5556,-393,1192,458,-4471,1929,
960,7,20,2023,11,29,14,428,-5785,-429,393,544,-4127,1724,
961,7,20,2023,11,29,14,438,-5933,-634,-502,437,-3625,1341,
962,7,20,2023,11,29,14,448,-5991,-1014,-1382,239,-2876,846,
963,7,20,2023,11,29,14,458,-5928,-1258,-1966,120,-1876,369,
964,7,20,2023,11,29,14,468,-5812,-1078,-1952,54,-679,-14,
965,7,20,2023,11,29,14,478,-5870,-518,-1264,-105,513,-259,
966,7,20,2023,11,29,14,488,-5974,152,-196,-518,1411,-346,
967,7,20,2023,11,29,14,498,-5917,487,705,-1134,1919,-316,
968,7,20,2023,11,29,14,508,-5480,498,1073,-1726,2140,-201,
969,7,20,2023,11,29,14,518,4775,-1708,4695,-1713,2420,-211,
970,7,20,2023,11,29,14,528,6451,5331,14170,276,2816,-593,
971,7,20,2023,11,29,14,538,6516,6236,6845,91,1024,-821,
972,7,20,2023,11,29,14,548,5223,2060,-3937,-1160,2088,-1529,
973,7,20,2023,11,29,14,558,-2392,1040,317,-998,6299,-761,
974,7,20,2023,11,29,14,568,-8346,477,7362,24,7015,620,
975,7,20,2023,11,29,14,578,-5151,-1419,6892,-38,4342,747,
976,7,20,2023,11,29,14,588,-486,-2697,3998,-298,3027,-330,
977,7,20,2023,11,29,14,598,-1060,-1050,4460,103,3616,-1170,
978,7,20,2023,11,29,14,608,-3354,1571,5274,538,3878,-1086,
979,7,20,2023,11,29,14,618,-3341,2732,4539,346,3503,-775,
980,7,20,2023,11,29,14,628,-2748,1902,4292,-52,3371,-636,
981,7,20,2023,11,29,14,638,-2861,459,4585,-201,3330,-554,
982,7,20,2023,11,29,14,648,-2761,211,4531,-126,3053,-554,
983,7,20,2023,11,29,14,658,-3566,1963,4661,-375,2676,-685,
984,7,20,2023,11,29,14,668,-3373,2610,3939,-866,2102,-711,
985,7,20,2023,11,29,14,678,-2712,874,3924,-1162,1721,-655,
986,7,20,2023,11,29,14,688,-2263,-333,4247,-1088,1385,-606,
987,7,20,2023,11,29,14,698,-2442,729,4025,-931,1073,-550,
988,7,20,2023,11,29,14,708,-2285,1328,3683,-868,834,-452,
989,7,20,2023,11,29,14,718,-1816,540,3843,-818,751,-375,
990,7,20,2023,11,29,14,728,-1991,165,4056,-735,685,-330,
991,7,20,2023,11,29,14,738,-2038,413,3901,-587,515,-259,
992,7,20,2023,11,29,14,748,-1824,504,3814,-462,419,-185,
993,7,20,2023,11,29,14,758,-1954,271,3866,-348,394,-135,
994,7,20,2023,11,29,14,768,-1931,236,3835,-189,301,-71,
995,7,20,2023,11,29,14,778,-1868,517,3731,-48,270,8,
996,7,20,2023,11,29,14,788,-1878,740,3658,24,281,56,
997,7,20,2023,11,29,14,798,-1810,719,3623,61,295,65,
998,7,20,2023,11,29,14,808,-1782,691,3618,72,302,65,
999,7,20,2023,11,29,14,818,-1822,781,3634,54,306,40,
1000,7,20,2023,11,29,14,828,-1988,634,3699,37,300,20,
1001,7,20,2023,11,29,14,838,-1974,516,3677,79,265,32,
1002,7,20,2023,11,29,14,848,-1825,503,3658,151,269,68,
1003,7,20,2023,11,29,14,858,-1778,626,3646,191,307,99,
1004,7,20,2023,11,29,14,868,-1771,640,3621,199,358,102,
1005,7,20,2023,11,29,14,878,-1760,591,3623,197,395,111,
1006,7,20,2023,11,29,14,888,-1891,614,3637,200,433,114,
1007,7,20,2023,11,29,14,898,-1934,615,3609,201,448,109,
1008,7,20,2023,11,29,14,908,-1925,608,3580,192,438,111,
1009,7,20,2023,11,29,14,918,-1823,712,3529,180,425,105,
1010,7,20,2023,11,29,14,928,-1803,736,3538,152,435,79,
1011,7,20,2023,11,29,14,938,-1792,725,3516,111,457,53,
1012,7,20,2023,11,29,14,948,-1790,737,3543,78,490,21,
1013,7,20,2023,11,29,14,958,-1861,755,3560,41,521,-2,
1014,7,20,2023,11,29,14,968,-1936,739,3536,-6,543,-26,
1015,7,20,2023,11,29,14,978,-1906,692,3525,-33,540,-39,
1016,7,20,2023,11,29,14,988,-1921,726,3524,-57,544,-54,
1017,7,20,2023,11,29,14,998,-1932,617,3542,-63,549,-63,
1018,7,20,2023,11,29,15,8,-1915,666,3570,-39,553,-58,
1019,7,20,2023,11,29,15,18,-1994,659,3568,-36,569,-59,
1020,7,20,2023,11,29,15,28,-2024,623,3538,-27,572,-66,
1021,7,20,2023,11,29,15,48,-2038,686,3534,-29,585,-70,
1022,7,20,2023,11,29,15,58,-2024,648,3539,-42,597,-81,
1023,7,20,2023,11,29,15,68,-2042,659,3536,-44,601,-100,
1024,7,20,2023,11,29,15,78,-2063,665,3516,-55,598,-115,
1025,7,20,2023,11,29,15,88,-2032,698,3497,-79,599,-147,
1026,7,20,2023,11,29,15,98,-2040,719,3479,-107,599,-180,
1027,7,20,2023,11,29,15,108,-2092,754,3441,-137,594,-217,
1028,7,20,2023,11,29,15,118,-2081,818,3413,-180,570,-263,
1029,7,20,2023,11,29,15,128,-2102,926,3371,-240,523,-331,
1030,7,20,2023,11,29,15,138,-2156,727,3378,-319,438,-428,
1031,7,20,2023,11,29,15,148,-2286,432,3378,-331,346,-464,
1032,7,20,2023,11,29,15,158,-2315,372,3400,-235,301,-367,
1033,7,20,2023,11,29,15,168,-2176,484,3413,-127,288,-250,
1034,7,20,2023,11,29,15,178,-2043,682,3395,-101,292,-224,
1035,7,20,2023,11,29,15,188,-2058,794,3395,-160,300,-283,
1036,7,20,2023,11,29,15,198,-2116,784,3378,-244,282,-377,
1037,7,20,2023,11,29,15,208,-2174,764,3388,-318,227,-467,
1038,7,20,2023,11,29,15,218,-2258,693,3381,-371,149,-535,
1039,7,20,2023,11,29,15,228,-2297,499,3392,-380,103,-543,
1040,7,20,2023,11,29,15,238,-2249,415,3402,-348,94,-488,
1041,7,20,2023,11,29,15,248,-2172,533,3407,-357,89,-455,
1042,7,20,2023,11,29,15,258,-2168,582,3427,-390,90,-482,
1043,7,20,2023,11,29,15,268,-2165,506,3463,-394,105,-513,
1044,7,20,2023,11,29,15,278,-2160,305,3509,-337,183,-491,
1045,7,20,2023,11,29,15,288,-2155,283,3499,-229,297,-412,
1046,7,20,2023,11,29,15,298,-2075,358,3504,-159,419,-336,
1047,7,20,2023,11,29,15,308,-2086,407,3512,-125,570,-298,
1048,7,20,2023,11,29,15,318,-2087,536,3515,-116,742,-313,
1049,7,20,2023,11,29,15,328,-2060,650,3519,-170,916,-370,
1050,7,20,2023,11,29,15,338,-2120,520,3522,-189,1123,-445,
1051,7,20,2023,11,29,15,348,-2195,544,3523,-126,1336,-507,
1052,7,20,2023,11,29,15,358,-2140,510,3589,-106,1562,-540,
1053,7,20,2023,11,29,15,368,-2083,464,3616,-80,1873,-562,
1054,7,20,2023,11,29,15,378,-2066,520,3624,-55,2275,-567,
1055,7,20,2023,11,29,15,388,-2100,591,3610,-75,2722,-606,
1056,7,20,2023,11,29,15,398,-2073,486,3554,-106,3205,-712,
1057,7,20,2023,11,29,15,408,-2067,386,3530,-99,3726,-794,
1058,7,20,2023,11,29,15,418,-2024,385,3569,-132,4287,-824,
1059,7,20,2023,11,29,15,428,-2064,390,3544,-217,4912,-828,
1060,7,20,2023,11,29,15,438,-2190,465,3473,-281,5625,-879,
1061,7,20,2023,11,29,15,448,-2243,463,3447,-297,6451,-1002,
1062,7,20,2023,11,29,15,458,-2259,455,3456,-293,7391,-1157,
1063,7,20,2023,11,29,15,468,-2467,444,3426,-315,8327,-1328,
1064,7,20,2023,11,29,15,478,-2684,537,3307,-355,9188,-1503,
1065,7,20,2023,11,29,15,488,-2975,539,3323,-402,10006,-1655,
1066,7,20,2023,11,29,15,498,-3309,581,3288,-441,10707,-1813,
1067,7,20,2023,11,29,15,508,-3717,526,3252,-457,11311,-1950,
1068,7,20,2023,11,29,15,518,-4540,512,3522,-422,11730,-2004,
1069,7,20,2023,11,29,15,528,-4876,114,3617,-352,11773,-1943,
1070,7,20,2023,11,29,15,538,-5465,-236,3586,-219,11594,-1831,
1071,7,20,2023,11,29,15,548,-6100,-611,3750,59,11192,-1568,
1072,7,20,2023,11,29,15,558,-6544,-500,3995,573,10570,-1280,
1073,7,20,2023,11,29,15,568,-6485,-310,3954,961,9830,-1122,
1074,7,20,2023,11,29,15,578,-5878,57,3591,930,9150,-1184,
1075,7,20,2023,11,29,15,588,-4718,614,3345,590,8709,-1325,
1076,7,20,2023,11,29,15,598,-3581,667,3158,340,8422,-1307,
1077,7,20,2023,11,29,15,608,-2504,1090,2479,-26,8513,-1528,
1078,7,20,2023,11,29,15,618,-3726,1840,2735,-470,9114,-1706,
1079,7,20,2023,11,29,15,628,-4671,3461,3572,-1038,8910,-1335,
1080,7,20,2023,11,29,15,638,-10315,3667,6750,-2107,7369,-411,
1081,7,20,2023,11,29,15,648,-8659,2991,7976,-2298,3175,785,
1082,7,20,2023,11,29,15,658,-4886,2526,5333,-2638,-747,1584,
1083,7,20,2023,11,29,15,668,-3076,1919,3508,-2958,-2640,1963,
1084,7,20,2023,11,29,15,678,-2071,1257,2409,-3067,-3325,1944,
1085,7,20,2023,11,29,15,688,-1470,647,1843,-3135,-3202,1686,
1086,7,20,2023,11,29,15,698,-1445,-72,1768,-2938,-2845,1416,
1087,7,20,2023,11,29,15,708,-1765,-695,2217,-2267,-2736,1227,
1088,7,20,2023,11,29,15,718,-1911,-1021,2644,-1270,-3049,1082,
1089,7,20,2023,11,29,15,728,-1857,-1018,2829,-165,-3658,877,
1090,7,20,2023,11,29,15,738,-1707,-671,2846,740,-4356,579,
1091,7,20,2023,11,29,15,748,-1646,-282,2785,1212,-4972,223,
1092,7,20,2023,11,29,15,758,-1956,23,2848,1296,-5497,-137,
1093,7,20,2023,11,29,15,768,-2590,229,3122,1187,-6052,-427,
1094,7,20,2023,11,29,15,778,-3095,359,3280,1011,-6841,-577,
1095,7,20,2023,11,29,15,788,-3121,492,3102,794,-7819,-582,
1096,7,20,2023,11,29,15,798,-2852,547,2659,560,-8641,-464,
1097,7,20,2023,11,29,15,808,-2526,545,2137,350,-9119,-249,
1098,7,20,2023,11,29,15,818,-2312,500,1728,197,-9220,21,
1099,7,20,2023,11,29,15,828,-2346,466,1580,118,-9034,316,
1100,7,20,2023,11,29,15,838,-2608,496,1645,81,-8757,630,
1101,7,20,2023,11,29,15,848,-2929,547,1838,39,-8558,910,
1102,7,20,2023,11,29,15,858,-3276,572,2068,-25,-8460,1148,
1103,7,20,2023,11,29,15,868,-3581,513,2262,-121,-8443,1311,
1104,7,20,2023,11,29,15,878,-3831,338,2363,-200,-8447,1411,
1105,7,20,2023,11,29,15,888,-4140,163,2396,-204,-8434,1451,
1106,7,20,2023,11,29,15,908,-4951,-76,2193,5,-8281,1417,
1107,7,20,2023,11,29,15,918,-5327,-121,1979,125,-8117,1384,
1108,7,20,2023,11,29,15,928,-5533,-204,1682,184,-7880,1318,
1109,7,20,2023,11,29,15,938,-5431,-340,1216,170,-7495,1165,
1110,7,20,2023,11,29,15,948,-5156,-568,743,111,-6837,884,
1111,7,20,2023,11,29,15,958,-4870,-903,429,109,-5883,506,
1112,7,20,2023,11,29,15,968,-4777,-1213,287,261,-4731,101,
1113,7,20,2023,11,29,15,978,-5039,-1427,309,668,-3559,-226,
1114,7,20,2023,11,29,15,988,-5485,-1440,572,1287,-2536,-425,
1115,7,20,2023,11,29,15,998,-5822,-1289,846,1971,-1809,-511,
1116,7,20,2023,11,29,16,8,-6008,-986,957,2609,-1383,-518,
1117,7,20,2023,11,29,16,18,-6358,-650,892,3104,-1178,-481,
1118,7,20,2023,11,29,16,28,-6561,-362,604,3427,-1164,-373,
1119,7,20,2023,11,29,16,38,-6599,-109,91,3584,-1244,-205,
1120,7,20,2023,11,29,16,48,-6826,-39,-407,3548,-1256,35,
1121,7,20,2023,11,29,16,58,-6770,22,-946,3418,-1237,363,
1122,7,20,2023,11,29,16,68,-6428,248,-1549,3221,-1147,711,
1123,7,20,2023,11,29,16,78,-6018,362,-2040,2922,-871,1024,
1124,7,20,2023,11,29,16,88,-5642,367,-2422,2632,-422,1364,
1125,7,20,2023,11,29,16,98,-5381,352,-2752,2395,176,1733,
1126,7,20,2023,11,29,16,108,-5372,284,-2952,2217,840,2028,
1127,7,20,2023,11,29,16,118,-5397,54,-2936,2059,1445,2115,
1128,7,20,2023,11,29,16,128,-5232,-341,-2733,1859,1926,1931,
1129,7,20,2023,11,29,16,138,-4994,-816,-2357,1671,2364,1524,
1130,7,20,2023,11,29,16,148,-4657,-1165,-1838,1627,2843,1030,
1131,7,20,2023,11,29,16,158,-4221,-1083,-1327,1735,3426,619,
1132,7,20,2023,11,29,16,168,-3905,-416,-801,1760,4086,304,
1133,7,20,2023,11,29,16,178,-3714,347,-204,1463,4730,9,
1134,7,20,2023,11,29,16,188,-3737,874,481,813,5239,-283,
1135,7,20,2023,11,29,16,198,-3915,1108,1293,95,5550,-486,
1136,7,20,2023,11,29,16,208,-4212,996,2109,-368,5575,-546,
1137,7,20,2023,11,29,16,218,-4443,816,2822,-478,5286,-517,
1138,7,20,2023,11,29,16,228,-4475,687,3214,-300,4804,-494,
1139,7,20,2023,11,29,16,238,-4145,650,3187,53,4204,-496,
1140,7,20,2023,11,29,16,248,-3606,541,2682,557,3666,-488,
1141,7,20,2023,11,29,16,258,-3342,484,1940,1198,3375,-500,
1142,7,20,2023,11,29,16,268,-5153,3335,3106,1707,3361,-647,
1143,7,20,2023,11,29,16,278,-18256,22826,17372,-4688,2511,-1940,
1144,7,20,2023,11,29,16,288,-7649,1034,3132,-11196,-7158,619,
1145,7,20,2023,11,29,16,298,-8508,-4846,3306,-9196,-10276,-700,
1146,7,20,2023,11,29,16,308,-3852,258,2330,-2629,-12133,-2316,
1147,7,20,2023,11,29,16,318,-793,5717,4678,-1357,-11922,-2742,
1148,7,20,2023,11,29,16,328,351,-3382,6413,-4153,-10032,-2141,
1149,7,20,2023,11,29,16,338,-878,1877,4444,-2651,-8859,-2372,
1150,7,20,2023,11,29,16,348,-835,-1192,4117,-3275,-7168,-2329,
1151,7,20,2023,11,29,16,358,70,-3423,4744,-2431,-5123,-1853,
1152,7,20,2023,11,29,16,368,-2678,-1416,3998,-1067,-3133,-887,
1153,7,20,2023,11,29,16,378,-1909,-522,4094,-518,-1855,-219,
1154,7,20,2023,11,29,16,388,-2015,-877,4067,-67,-995,23,
1155,7,20,2023,11,29,16,398,-2372,-767,3872,409,-429,370,
1156,7,20,2023,11,29,16,408,-2358,-23,3718,788,-108,764,
1157,7,20,2023,11,29,16,418,-2276,791,3454,788,48,894,
1158,7,20,2023,11,29,16,428,-2158,1032,3361,612,-7,797,
1159,7,20,2023,11,29,16,438,-1785,1387,3286,418,-103,601,
1160,7,20,2023,11,29,16,448,-1790,1271,3332,185,-177,341,
1161,7,20,2023,11,29,16,458,-1796,979,3398,11,-203,134,
1162,7,20,2023,11,29,16,468,-2044,725,3474,-70,-194,11,
1163,7,20,2023,11,29,16,478,-2083,576,3500,-96,-194,-44,
1164,7,20,2023,11,29,16,488,-2019,483,3524,-86,-180,-55,
1165,7,20,2023,11,29,16,498,-2025,364,3569,-57,-146,-34,
1166,7,20,2023,11,29,16,508,-2091,181,3654,16,-86,32,
1167,7,20,2023,11,29,16,518,-2128,106,3629,158,-13,164,
1168,7,20,2023,11,29,16,528,-2020,228,3576,315,47,288,
1169,7,20,2023,11,29,16,538,-1856,461,3540,405,125,349,
1170,7,20,2023,11,29,16,548,-1866,569,3484,428,213,363,
1171,7,20,2023,11,29,16,558,-1908,728,3452,427,287,342,
1172,7,20,2023,11,29,16,568,-2053,837,3454,393,318,293,
1173,7,20,2023,11,29,16,578,-2107,788,3434,340,280,239,
1174,7,20,2023,11,29,16,588,-2053,820,3369,287,206,196,
1175,7,20,2023,11,29,16,598,-1955,933,3360,220,159,135,
1176,7,20,2023,11,29,16,608,-2017,890,3408,121,153,47,
1177,7,20,2023,11,29,16,618,-2076,802,3369,41,135,-21,
1178,7,20,2023,11,29,16,628,-2080,807,3353,-28,95,-79,
1179,7,20,2023,11,29,16,638,-2080,704,3399,-101,54,-141,
1180,7,20,2023,11,29,16,648,-2116,574,3432,-131,25,-165,
1181,7,20,2023,11,29,16,658,-2132,551,3444,-120,10,-155,
1182,7,20,2023,11,29,16,668,-2100,586,3441,-102,0,-138,
1183,7,20,2023,11,29,16,678,-2050,619,3472,-95,-1,-136,
1184,7,20,2023,11,29,16,688,-2035,606,3454,-116,5,-147,
1185,7,20,2023,11,29,16,698,-2010,596,3444,-126,20,-156,
1186,7,20,2023,11,29,16,708,-1980,661,3426,-134,36,-173,
1187,7,20,2023,11,29,16,718,-1968,738,3408,-173,43,-219,
1188,7,20,2023,11,29,16,728,-1987,820,3371,-249,37,-306,
1189,7,20,2023,11,29,16,738,-2036,929,3371,-368,-4,-438,
1190,7,20,2023,11,29,16,748,-2133,1058,3345,-526,-83,-600,
1191,7,20,2023,11,29,16,768,-2451,331,3523,-715,-52,-636,
1192,7,20,2023,11,29,16,778,-2227,498,3454,-693,-55,-551,
1193,7,20,2023,11,29,16,788,-1610,621,3398,-657,-73,-542,
1194,7,20,2023,11,29,16,798,-1322,879,3553,-620,-24,-604,
1195,7,20,2023,11,29,16,808,-1569,650,3680,-652,111,-736,
1196,7,20,2023,11,29,16,818,-1789,177,3571,-690,299,-828,
1197,7,20,2023,11,29,16,828,-1960,185,3506,-675,549,-805,
1198,7,20,2023,11,29,16,838,-2169,-124,3463,-582,837,-642,
1199,7,20,2023,11,29,16,848,-2388,-42,3379,-510,931,-517,
1200,7,20,2023,11,29,16,858,-2637,-213,3333,-392,859,-415,
1201,7,20,2023,11,29,16,868,-2575,-300,3366,-216,738,-252,
1202,7,20,2023,11,29,16,878,-2371,-20,3447,-70,612,-69,
1203,7,20,2023,11,29,16,888,-2131,215,3545,13,563,33,
1204,7,20,2023,11,29,16,898,-2220,324,3514,35,584,42,
1205,7,20,2023,11,29,16,908,-2326,406,3452,16,582,11,
1206,7,20,2023,11,29,16,918,-2234,506,3340,-14,528,-42,
1207,7,20,2023,11,29,16,928,-2218,709,3324,-75,480,-152,
1208,7,20,2023,11,29,16,938,-2041,642,3457,-174,475,-305,
1209,7,20,2023,11,29,16,948,-2067,550,3469,-242,545,-440,
1210,7,20,2023,11,29,16,958,-2139,470,3504,-239,653,-538,
1211,7,20,2023,11,29,16,968,-2161,467,3557,-237,793,-612,
1212,7,20,2023,11,29,16,978,-2076,479,3635,-238,980,-682,
1213,7,20,2023,11,29,16,988,-2173,459,3639,-251,1191,-759,
1214,7,20,2023,11,29,16,998,-2115,390,3676,-240,1456,-846,
1215,7,20,2023,11,29,17,8,-2343,231,3618,-228,1757,-889,
1216,7,20,2023,11,29,17,18,-2215,118,3657,-184,2119,-893,
1217,7,20,2023,11,29,17,28,-2163,153,3578,-129,2496,-872,
1218,7,20,2023,11,29,17,38,-2356,236,3190,-99,2756,-845,
1219,7,20,2023,11,29,17,48,-2533,356,3277,-105,2945,-808,
1220,7,20,2023,11,29,17,58,-2384,444,3747,-152,3417,-827,
1221,7,20,2023,11,29,17,68,-1981,618,4173,-291,4330,-888,
1222,7,20,2023,11,29,17,78,-1617,705,4581,-441,5636,-973,
1223,7,20,2023,11,29,17,88,-1535,723,4838,-677,7347,-1113,
1224,7,20,2023,11,29,17,98,-1637,820,5186,-1028,9421,-1358,
1225,7,20,2023,11,29,17,108,-1995,1115,5565,-1422,11485,-1744,
1226,7,20,2023,11,29,17,118,-2679,1389,5718,-1846,13017,-2212,
1227,7,20,2023,11,29,17,128,-3905,1293,5803,-2305,13776,-2632,
1228,7,20,2023,11,29,17,138,-4746,747,5919,-2786,13662,-2922,
1229,7,20,2023,11,29,17,148,-4783,360,5331,-3091,12734,-3019,
1230,7,20,2023,11,29,17,158,-4624,427,4227,-3417,11477,-2997,
1231,7,20,2023,11,29,17,168,-1475,395,2345,-3587,10264,-2664,
1232,7,20,2023,11,29,17,178,505,350,565,-3702,9771,-2330,
1233,7,20,2023,11,29,17,188,428,-442,277,-3559,9822,-1907,
1234,7,20,2023,11,29,17,198,1251,-1433,4122,-2136,9465,-1277,
1235,7,20,2023,11,29,17,208,3550,761,6460,510,7495,-160,
1236,7,20,2023,11,29,17,218,2740,3820,6042,1937,5231,988,
1237,7,20,2023,11,29,17,228,-3943,3606,9314,2610,2160,2820,
1238,7,20,2023,11,29,17,238,-978,4206,7651,2300,-2611,3935,
1239,7,20,2023,11,29,17,248,448,3597,4978,497,-5583,4334,
1240,7,20,2023,11,29,17,258,935,1562,3101,-1318,-6924,4349,
1241,7,20,2023,11,29,17,268,860,-354,2155,-2284,-7323,4042,
1242,7,20,2023,11,29,17,278,453,-1634,1990,-2115,-7376,3573,
1243,7,20,2023,11,29,17,288,68,-2671,2124,-1286,-7286,3031,
1244,7,20,2023,11,29,17,298,-632,-2850,2599,40,-7330,2329,
1245,7,20,2023,11,29,17,308,-1302,-1926,2924,1443,-7685,1554,
1246,7,20,2023,11,29,17,318,-1903,-692,2760,2094,-8093,846,
1247,7,20,2023,11,29,17,328,-1879,32,1949,1951,-8339,288,
1248,7,20,2023,11,29,17,338,-1598,131,1055,1499,-7957,-63,
1249,7,20,2023,11,29,17,348,-1547,-31,517,1158,-6753,-208,
1250,7,20,2023,11,29,17,358,-1950,-338,560,1125,-4908,-179,
1251,7,20,2023,11,29,17,368,-2917,-584,954,1607,-3045,106,
1252,7,20,2023,11,29,17,378,-4184,-538,1483,2470,-1556,663,
1253,7,20,2023,11,29,17,388,-5897,-398,2089,3307,-421,1259,
1254,7,20,2023,11,29,17,398,-8143,-200,2577,3940,227,1805,
1255,7,20,2023,11,29,17,408,-10563,64,2763,4223,221,2261,
1256,7,20,2023,11,29,17,418,-12488,402,2591,4070,-468,2565,
1257,7,20,2023,11,29,17,428,-13409,579,1911,3389,-1726,2602,
1258,7,20,2023,11,29,17,438,-12785,493,666,2215,-3289,2289,
1259,7,20,2023,11,29,17,448,-10442,188,-1061,837,-4642,1711,
1260,7,20,2023,11,29,17,458,-7427,-328,-2838,-354,-5113,1087,
1261,7,20,2023,11,29,17,468,-5267,-905,-3979,-1003,-4304,558,
1262,7,20,2023,11,29,17,478,-4351,-1188,-4321,-957,-2557,236,
1263,7,20,2023,11,29,17,488,-5101,-1415,-3854,-289,-576,191,
1264,7,20,2023,11,29,17,498,-6541,-1536,-2793,937,756,427,
1265,7,20,2023,11,29,17,508,-7310,-1065,-2075,2339,901,739,
1266,7,20,2023,11,29,17,518,-6739,-461,-2046,3300,244,878,
1267,7,20,2023,11,29,17,528,-5780,-77,-2213,3588,-235,844,
1268,7,20,2023,11,29,17,538,-4910,-96,-2417,3326,-140,762,
1269,7,20,2023,11,29,17,548,-4175,-86,-2327,2831,478,665,
1270,7,20,2023,11,29,17,558,-4018,186,-1790,2076,1408,519,
1271,7,20,2023,11,29,17,568,-4240,490,-984,1025,2243,286,
1272,7,20,2023,11,29,17,578,-4382,638,-294,-199,2747,25,
1273,7,20,2023,11,29,17,588,-4396,526,155,-1290,2938,-144,
1274,7,20,2023,11,29,17,598,-4219,233,229,-1972,2995,-140,
1275,7,20,2023,11,29,17,608,-3948,-104,214,-2181,3183,-34,
1276,7,20,2023,11,29,17,628,-9128,6683,5774,-2571,3986,-384,
1277,7,20,2023,11,29,17,638,-22634,15186,18427,-9756,1186,-412,
1278,7,20,2023,11,29,17,648,935,-9284,-2090,-9686,-10260,3232,
1279,7,20,2023,11,29,17,658,-8444,-4150,2812,-5025,-9392,1827,
1280,7,20,2023,11,29,17,668,-5041,4227,1821,1425,-10853,1225,
1281,7,20,2023,11,29,17,678,-2121,5608,3729,26,-10422,264,
1282,7,20,2023,11,29,17,688,-940,-2996,5583,-2102,-9061,-140,
1283,7,20,2023,11,29,17,698,-1622,1489,3790,-296,-8513,-237,
1284,7,20,2023,11,29,17,708,-2192,1536,3654,-765,-7698,-121,
1285,7,20,2023,11,29,17,718,-1518,674,4232,-1126,-7029,-407,
1286,7,20,2023,11,29,17,728,-1938,820,4201,-1254,-6295,-546,
1287,7,20,2023,11,29,17,738,-1605,637,4143,-1716,-5465,-520,
1288,7,20,2023,11,29,17,748,-2335,523,3751,-1767,-4616,-549,
1289,7,20,2023,11,29,17,758,-1779,-182,3882,-1443,-3907,-561,
1290,7,20,2023,11,29,17,768,-2069,-419,3935,-957,-3087,-384,
1291,7,20,2023,11,29,17,778,-1949,-145,4012,-540,-2375,-90,
1292,7,20,2023,11,29,17,788,-1653,88,4007,-299,-1785,98,
1293,7,20,2023,11,29,17,798,-1007,368,3817,-145,-1270,169,
1294,7,20,2023,11,29,17,808,-960,661,3770,-29,-811,154,
1295,7,20,2023,11,29,17,818,-1483,559,3741,18,-375,81,
1296,7,20,2023,11,29,17,828,-1862,381,3655,25,-82,47,
1297,7,20,2023,11,29,17,838,-1943,357,3608,43,23,63,
1298,7,20,2023,11,29,17,848,-1965,583,3561,30,17,48,
1299,7,20,2023,11,29,17,858,-1984,763,3530,-65,-39,-36,
1300,7,20,2023,11,29,17,868,-1953,772,3527,-198,-107,-144,
1301,7,20,2023,11,29,17,878,-1992,743,3539,-314,-165,-223,
1302,7,20,2023,11,29,17,888,-2079,535,3555,-338,-172,-225,
1303,7,20,2023,11,29,17,898,-2059,574,3539,-312,-182,-195,
1304,7,20,2023,11,29,17,908,-2040,639,3510,-351,-242,-223,
1305,7,20,2023,11,29,17,918,-1982,586,3509,-429,-330,-282,
1306,7,20,2023,11,29,17,928,-1929,518,3510,-465,-406,-315,
1307,7,20,2023,11,29,17,938,-1801,278,3585,-375,-377,-248,
1308,7,20,2023,11,29,17,948,-1698,362,3624,-252,-283,-148,
1309,7,20,2023,11,29,17,958,-1675,349,3628,-197,-161,-106,
1310,7,20,2023,11,29,17,968,-1600,298,3621,-160,-39,-93,
1311,7,20,2023,11,29,17,978,-1624,360,3629,-131,80,-90,
1312,7,20,2023,11,29,17,988,-1613,441,3610,-110,181,-87,
1313,7,20,2023,11,29,17,998,-1548,542,3622,-104,261,-110,
1314,7,20,2023,11,29,18,8,-1652,631,3596,-136,323,-157,
1315,7,20,2023,11,29,18,18,-1742,549,3556,-172,360,-206,
1316,7,20,2023,11,29,18,28,-1793,474,3544,-191,377,-242,
1317,7,20,2023,11,29,18,38,-1851,415,3530,-204,371,-268,
1318,7,20,2023,11,29,18,48,-2062,265,3515,-207,352,-281,
1319,7,20,2023,11,29,18,58,-2090,100,3560,-172,340,-265,
1320,7,20,2023,11,29,18,68,-1970,117,3620,-100,348,-194,
1321,7,20,2023,11,29,18,78,-1879,325,3609,-37,373,-117,
1322,7,20,2023,11,29,18,88,-2057,355,3502,-19,414,-90,
1323,7,20,2023,11,29,18,98,-1741,362,3593,22,483,-89,
1324,7,20,2023,11,29,18,108,-1586,502,3658,25,571,-103,
1325,7,20,2023,11,29,18,118,-1986,452,3550,-12,637,-156,
1326,7,20,2023,11,29,18,128,-2116,333,3496,-25,642,-209,
1327,7,20,2023,11,29,18,138,-2190,288,3507,-19,625,-231,
1328,7,20,2023,11,29,18,148,-2125,207,3553,-1,645,-237,
1329,7,20,2023,11,29,18,158,-2000,284,3651,40,758,-222,
1330,7,20,2023,11,29,18,168,-1686,347,3829,88,1065,-240,
1331,7,20,2023,11,29,18,178,-1012,477,4098,152,1624,-327,
1332,7,20,2023,11,29,18,188,-651,452,4165,256,2271,-451,
1333,7,20,2023,11,29,18,198,-1456,639,3863,394,2750,-585,
1334,7,20,2023,11,29,18,208,-2490,682,3424,314,2941,-709,
1335,7,20,2023,11,29,18,218,-2481,347,3396,260,3038,-832,
1336,7,20,2023,11,29,18,228,-2295,492,3522,263,3140,-912,
1337,7,20,2023,11,29,18,238,-2053,439,3708,207,3421,-964,
1338,7,20,2023,11,29,18,248,-1770,399,4084,228,4013,-983,
1339,7,20,2023,11,29,18,258,-1235,420,4507,241,4974,-941,
1340,7,20,2023,11,29,18,268,-775,579,4718,202,6086,-876,
1341,7,20,2023,11,29,18,278,-1480,808,4454,50,7106,-887,
1342,7,20,2023,11,29,18,288,-1924,797,4291,-110,8182,-1005,
1343,7,20,2023,11,29,18,298,-1952,883,4395,-278,9324,-1162,
1344,7,20,2023,11,29,18,308,-2226,1020,4451,-548,10497,-1374,
1345,7,20,2023,11,29,18,318,-2016,912,4498,-928,11699,-1642,
1346,7,20,2023,11,29,18,328,-2051,1075,4102,-1413,12597,-1921,
1347,7,20,2023,11,29,18,338,-2704,812,3022,-1973,13125,-2180,
1348,7,20,2023,11,29,18,348,-2893,458,2344,-2241,13404,-2294,
1349,7,20,2023,11,29,18,358,-568,801,1787,-2334,13324,-2157,
1350,7,20,2023,11,29,18,368,849,191,1442,-2735,13099,-1825,
1351,7,20,2023,11,29,18,378,1821,-488,1285,-2822,12601,-1276,
1352,7,20,2023,11,29,18,388,3716,-264,3664,-2088,12313,-616,
1353,7,20,2023,11,29,18,398,6097,537,7768,-765,11772,176,
1354,7,20,2023,11,29,18,408,4599,1355,11657,756,9552,1462,
1355,7,20,2023,11,29,18,418,-11424,3295,18552,2355,3609,3272,
1356,7,20,2023,11,29,18,428,-5173,5789,14323,514,-6584,3367,
1357,7,20,2023,11,29,18,438,2675,3551,5611,-2842,-12655,2751,
1358,7,20,2023,11,29,18,448,3974,830,1589,-4872,-12934,2027,
1359,7,20,2023,11,29,18,458,2148,-2032,1123,-4861,-11072,1729,
1360,7,20,2023,11,29,18,468,-676,-3691,2048,-2756,-9700,1762,
1361,7,20,2023,11,29,18,488,-3187,-1387,2435,3015,-10013,542,
1362,7,20,2023,11,29,18,498,-3603,-648,2073,3853,-9955,-573,
1363,7,20,2023,11,29,18,508,-3677,-868,1648,4014,-9338,-1544,
1364,7,20,2023,11,29,18,518,-2783,-1186,184,4209,-8224,-2196,
1365,7,20,2023,11,29,18,528,-2324,-968,-840,4685,-5999,-2614,
1366,7,20,2023,11,29,18,538,-4403,-615,-248,5415,-2901,-2504,
1367,7,20,2023,11,29,18,548,-8135,-26,1081,6173,-474,-1833,
1368,7,20,2023,11,29,18,558,-11451,697,2017,6600,466,-835,
1369,7,20,2023,11,29,18,568,-13445,1169,2142,6356,156,237,
1370,7,20,2023,11,29,18,578,-13710,1130,1526,5455,-834,1222,
1371,7,20,2023,11,29,18,588,-12829,727,707,4119,-1892,1992,
1372,7,20,2023,11,29,18,598,-10883,225,-561,2554,-2761,2432,
1373,7,20,2023,11,29,18,608,-8530,-493,-2166,1045,-3009,2507,
1374,7,20,2023,11,29,18,618,-7091,-1223,-3206,-122,-2329,2361,
1375,7,20,2023,11,29,18,628,-6068,-1488,-3774,-787,-1130,2075,
1376,7,20,2023,11,29,18,638,-5947,-1437,-3849,-978,194,1717,
1377,7,20,2023,11,29,18,648,-6484,-1212,-3322,-892,1208,1312,
1378,7,20,2023,11,29,18,658,-6691,-1052,-2830,-559,1514,941,
1379,7,20,2023,11,29,18,668,-6244,-925,-2706,67,1196,707,
1380,7,20,2023,11,29,18,678,-5621,-789,-2742,826,916,670,
1381,7,20,2023,11,29,18,688,-4779,-738,-2969,1510,820,760,
1382,7,20,2023,11,29,18,698,-4081,-623,-3005,2139,1183,856,
1383,7,20,2023,11,29,18,708,-3966,-359,-2549,2553,1950,896,
1384,7,20,2023,11,29,18,718,-4133,128,-1810,2525,2686,752,
1385,7,20,2023,11,29,18,728,-4406,603,-1091,1919,3124,435,
1386,7,20,2023,11,29,18,738,-4395,853,-756,848,3285,60,
1387,7,20,2023,11,29,18,748,-4202,899,-674,-293,3432,-232,
1388,7,20,2023,11,29,18,758,-4482,1918,32,-1173,3709,-371,
1389,7,20,2023,11,29,18,768,-16819,18017,13210,-5847,3654,-1543,
1390,7,20,2023,11,29,18,778,-12396,2077,7528,-13239,-4495,338,
1391,7,20,2023,11,29,18,788,-5716,-10318,1387,-10760,-10224,1011,
1392,7,20,2023,11,29,18,798,-7474,-3785,1338,-2551,-11530,132,
1393,7,20,2023,11,29,18,808,-3754,8553,1907,1475,-12140,-414,
1394,7,20,2023,11,29,18,818,-831,-752,5246,-2393,-10703,-723,
1395,7,20,2023,11,29,18,828,176,-1769,5150,-1499,-9799,-1065,
1396,7,20,2023,11,29,18,838,-1443,1556,4066,-704,-8610,-976,
1397,7,20,2023,11,29,18,848,-1184,-682,4593,-1649,-7212,-688,
1398,7,20,2023,11,29,18,858,-1691,779,4270,-1405,-6025,-660,
1399,7,20,2023,11,29,18,868,-1901,411,4251,-1579,-4910,-604,
1400,7,20,2023,11,29,18,878,-1654,269,4138,-1486,-3857,-626,
1401,7,20,2023,11,29,18,888,-2147,-124,3886,-1296,-2936,-560,
1402,7,20,2023,11,29,18,898,-2262,-282,3812,-896,-2219,-420,
1403,7,20,2023,11,29,18,908,-2230,-332,3776,-551,-1661,-197,
1404,7,20,2023,11,29,18,918,-2175,-33,3774,-245,-1203,27,
1405,7,20,2023,11,29,18,928,-2187,449,3695,-91,-880,144,
1406,7,20,2023,11,29,18,938,-2018,612,3555,-86,-706,98,
1407,7,20,2023,11,29,18,948,-1928,662,3505,-181,-643,-41,
1408,7,20,2023,11,29,18,958,-1794,950,3488,-346,-626,-227,
1409,7,20,2023,11,29,18,968,-1785,1003,3485,-590,-606,-472,
1410,7,20,2023,11,29,18,978,-1942,656,3533,-766,-508,-667,
1411,7,20,2023,11,29,18,988,-1982,529,3561,-849,-405,-750,
1412,7,20,2023,11,29,18,998,-1987,285,3568,-869,-327,-761,
1413,7,20,2023,11,29,19,8,-2127,-72,3589,-726,-200,-667,
1414,7,20,2023,11,29,19,18,-2134,-110,3591,-594,-105,-509,
1415,7,20,2023,11,29,19,28,-2120,-248,3554,-456,-43,-377,
1416,7,20,2023,11,29,19,38,-1964,-293,3585,-245,53,-224,
1417,7,20,2023,11,29,19,48,-1922,-58,3612,-54,190,-65,
1418,7,20,2023,11,29,19,58,-1905,139,3570,58,318,16,
1419,7,20,2023,11,29,19,68,-1930,208,3560,111,417,26,
1420,7,20,2023,11,29,19,78,-1990,279,3560,112,499,12,
1421,7,20,2023,11,29,19,88,-2156,267,3503,77,542,-11,
1422,7,20,2023,11,29,19,98,-2142,199,3476,57,539,-14,
1423,7,20,2023,11,29,19,108,-1947,316,3413,59,512,2,
1424,7,20,2023,11,29,19,118,-1670,491,3413,41,526,-15,
1425,7,20,2023,11,29,19,128,-1563,611,3513,1,620,-98,
1426,7,20,2023,11,29,19,138,-1780,544,3518,-65,765,-228,
1427,7,20,2023,11,29,19,148,-1900,319,3511,-109,924,-346,
1428,7,20,2023,11,29,19,158,-2007,126,3530,-110,1050,-398,
1429,7,20,2023,11,29,19,168,-2057,-222,3581,-82,1174,-345,
1430,7,20,2023,11,29,19,178,-2120,-178,3608,24,1330,-203,
1431,7,20,2023,11,29,19,188,-2261,-87,3564,99,1486,-45,
1432,7,20,2023,11,29,19,198,-2359,78,3411,150,1566,48,
1433,7,20,2023,11,29,19,208,-2386,221,3250,185,1531,54,
1434,7,20,2023,11,29,19,218,-2538,158,3173,236,1428,18,
1435,7,20,2023,11,29,19,228,-2522,211,3193,293,1328,1,
1436,7,20,2023,11,29,19,238,-2316,313,3315,321,1299,-19,
1437,7,20,2023,11,29,19,248,-2193,441,3313,312,1344,-71,
1438,7,20,2023,11,29,19,258,-2101,485,3434,289,1453,-179,
1439,7,20,2023,11,29,19,268,-1979,492,3506,244,1634,-308,
1440,7,20,2023,11,29,19,278,-2464,440,3264,146,1723,-420,
1441,7,20,2023,11,29,19,288,-2908,262,3048,90,1636,-515,
1442,7,20,2023,11,29,19,298,-3078,130,3045,109,1476,-553,
1443,7,20,2023,11,29,19,308,-2858,82,3151,174,1406,-525,
1444,7,20,2023,11,29,19,318,-2456,172,3380,229,1503,-460,
1445,7,20,2023,11,29,19,328,-2247,306,3636,228,1814,-393,
1446,7,20,2023,11,29,19,348,-1364,541,3967,224,3154,-399,
1447,7,20,2023,11,29,19,358,-2158,643,3565,115,3723,-435,
1448,7,20,2023,11,29,19,368,-2576,595,3564,134,4289,-598,
1449,7,20,2023,11,29,19,378,-2313,481,3997,148,5128,-735,
1450,7,20,2023,11,29,19,388,-1948,449,4561,152,6398,-742,
1451,7,20,2023,11,29,19,398,-1359,472,5114,59,8129,-692,
1452,7,20,2023,11,29,19,408,-1203,604,5412,-218,10032,-690,
1453,7,20,2023,11,29,19,418,-1706,833,5231,-626,11678,-860,
1454,7,20,2023,11,29,19,428,-2135,1077,4555,-1065,12911,-1201,
1455,7,20,2023,11,29,19,438,-2121,911,3358,-1503,13684,-1522,
1456,7,20,2023,11,29,19,448,-633,775,2164,-1807,14192,-1728,
1457,7,20,2023,11,29,19,458,615,1029,2081,-2082,14361,-1804,
1458,7,20,2023,11,29,19,468,2456,373,3717,-2228,13600,-1255,
1459,7,20,2023,11,29,19,478,4062,35,5648,-958,11419,-51,
1460,7,20,2023,11,29,19,488,2930,1341,8270,1327,8116,1752,
1461,7,20,2023,11,29,19,498,-4117,4496,11425,2590,3789,3419,
1462,7,20,2023,11,29,19,508,-883,5251,9822,765,-1411,3751,
1463,7,20,2023,11,29,19,518,184,3028,7034,-2135,-5098,3492,
1464,7,20,2023,11,29,19,528,1194,365,4347,-4085,-7200,2889,
1465,7,20,2023,11,29,19,538,1572,-2106,2509,-4108,-8042,2268,
1466,7,20,2023,11,29,19,548,886,-3325,1895,-2434,-8122,1462,
1467,7,20,2023,11,29,19,558,-3,-2834,1760,-18,-8099,479,
1468,7,20,2023,11,29,19,568,-867,-1470,1557,1785,-8124,-613,
1469,7,20,2023,11,29,19,578,-1058,-339,675,2509,-8174,-1552,
1470,7,20,2023,11,29,19,588,-956,288,61,2363,-7512,-2253,
1471,7,20,2023,11,29,19,598,-784,353,-69,1704,-5961,-2767,
1472,7,20,2023,11,29,19,608,-786,-433,121,1406,-3980,-2905,
1473,7,20,2023,11,29,19,618,-1919,-1007,862,2080,-1981,-2495,
1474,7,20,2023,11,29,19,628,-3980,-925,1728,3414,-471,-1632,
1475,7,20,2023,11,29,19,638,-6451,-296,2315,4752,287,-576,
1476,7,20,2023,11,29,19,648,-8697,367,2598,5589,341,473,
1477,7,20,2023,11,29,19,658,-10569,968,2655,5783,-149,1440,
1478,7,20,2023,11,29,19,668,-11880,1381,2389,5269,-1046,2300,
1479,7,20,2023,11,29,19,678,-12204,1410,1672,4152,-2183,2903,
1480,7,20,2023,11,29,19,688,-11556,966,757,2720,-3196,3207,
1481,7,20,2023,11,29,19,698,-10215,387,-580,1266,-3904,3313,
1482,7,20,2023,11,29,19,708,-8542,-187,-2230,-61,-4008,3225,
1483,7,20,2023,11,29,19,718,-7079,-700,-3513,-1223,-3209,2945,
1484,7,20,2023,11,29,19,728,-5837,-840,-4483,-2087,-1793,2537,
1485,7,20,2023,11,29,19,738,-6465,-929,-4557,-2660,-122,1987,
1486,7,20,2023,11,29,19,748,-7328,-802,-3872,-2774,976,1370,
1487,7,20,2023,11,29,19,758,-7520,-716,-3458,-2398,1040,852,
1488,7,20,2023,11,29,19,768,-7450,-873,-3431,-1643,569,590,
1489,7,20,2023,11,29,19,778,-6325,-1271,-4162,-443,-69,618,
1490,7,20,2023,11,29,19,788,-4660,-1335,-5143,998,96,792,
1491,7,20,2023,11,29,19,798,-3671,-868,-5320,2153,1339,801,
1492,7,20,2023,11,29,19,808,-3635,-282,-4325,2530,3096,443,
1493,7,20,2023,11,29,19,818,-4332,746,-2363,2083,4603,-64,
1494,7,20,2023,11,29,19,828,-20413,15277,16403,-2186,5281,-1394,
1495,7,20,2023,11,29,19,838,-16478,118,9156,-9579,-5348,903,
1496,7,20,2023,11,29,19,848,-3212,-7494,-2612,-7090,-12659,1558,
1497,7,20,2023,11,29,19,858,-6383,345,1802,-898,-12082,1299,
1498,7,20,2023,11,29,19,868,-1585,6595,5165,857,-12168,574,
1499,7,20,2023,11,29,19,878,1283,-977,6602,-1799,-10746,41,
1500,7,20,2023,11,29,19,888,-1460,1102,4212,-754,-9368,-494,
1501,7,20,2023,11,29,19,898,-3860,2406,2937,-1111,-8349,-800,
1502,7,20,2023,11,29,19,908,-1713,361,4573,-2051,-7812,-1080,
1503,7,20,2023,11,29,19,918,-116,496,4732,-2316,-6820,-1136,
1504,7,20,2023,11,29,19,928,-2132,-231,3935,-2320,-5432,-881,
1505,7,20,2023,11,29,19,938,-1470,-819,4210,-1582,-4249,-687,
1506,7,20,2023,11,29,19,948,-2046,-801,4368,-772,-2945,-355,
1507,7,20,2023,11,29,19,958,-1956,-475,4371,-224,-1945,84,
1508,7,20,2023,11,29,19,968,-1820,-297,4210,151,-1222,433,
1509,7,20,2023,11,29,19,978,-1569,-108,3887,477,-649,664,
1510,7,20,2023,11,29,19,988,-987,598,3622,700,-209,756,
1511,7,20,2023,11,29,19,998,-1066,1287,3573,665,117,604,
1512,7,20,2023,11,29,20,8,-2020,1317,3308,13,163,27,
1513,7,20,2023,11,29,20,18,-2160,1273,3298,-355,-56,-277,
1514,7,20,2023,11,29,20,28,-2144,1063,3321,-681,-275,-521,
1515,7,20,2023,11,29,20,38,-2095,1010,3445,-914,-422,-703,
1516,7,20,2023,11,29,20,48,-2174,104,3663,-909,-373,-688,
1517,7,20,2023,11,29,20,58,-2155,44,3701,-646,-221,-476,
1518,7,20,2023,11,29,20,68,-2077,108,3657,-446,-138,-319,
1519,7,20,2023,11,29,20,78,-2100,44,3587,-321,-99,-208,
1520,7,20,2023,11,29,20,88,-2060,-123,3583,-189,-85,-94,
1521,7,20,2023,11,29,20,98,-2037,-147,3615,-43,-71,38,
1522,7,20,2023,11,29,20,108,-1952,100,3582,87,-53,169,
1523,7,20,2023,11,29,20,118,-1828,316,3510,136,-22,204,
1524,7,20,2023,11,29,20,128,-1666,466,3476,84,19,147,
1525,7,20,2023,11,29,20,138,-1372,734,3413,-14,77,35,
1526,7,20,2023,11,29,20,148,-1085,1198,3553,-156,139,-116,
1527,7,20,2023,11,29,20,158,-1431,1202,3632,-399,189,-310,
1528,7,20,2023,11,29,20,168,-1567,1129,3500,-613,233,-493,
1529,7,20,2023,11,29,20,178,-1554,885,3633,-721,317,-656,
1530,7,20,2023,11,29,20,188,-1642,731,3573,-800,454,-752,
1531,7,20,2023,11,29,20,208,-1963,-255,3599,-765,810,-773,
1532,7,20,2023,11,29,20,218,-2045,-620,3648,-597,963,-656,
1533,7,20,2023,11,29,20,228,-1878,-508,3734,-344,1198,-450,
1534,7,20,2023,11,29,20,238,-1546,-114,3776,-118,1475,-267,
1535,7,20,2023,11,29,20,248,-1523,224,3774,52,1766,-191,
1536,7,20,2023,11,29,20,258,-1985,317,3591,147,1994,-209,
1537,7,20,2023,11,29,20,268,-2299,347,3404,202,2074,-288,
1538,7,20,2023,11,29,20,278,-2401,253,3378,234,2114,-415,
1539,7,20,2023,11,29,20,288,-2244,129,3521,299,2180,-464,
1540,7,20,2023,11,29,20,298,-2375,196,3509,392,2274,-433,
1541,7,20,2023,11,29,20,308,-2324,311,3592,466,2448,-415,
1542,7,20,2023,11,29,20,318,-1873,450,3841,532,2765,-430,
1543,7,20,2023,11,29,20,328,-2011,621,3803,499,3124,-493,
1544,7,20,2023,11,29,20,338,-2309,604,3612,391,3469,-619,
1545,7,20,2023,11,29,20,348,-2201,543,3445,301,3782,-775,
1546,7,20,2023,11,29,20,358,-2357,668,3039,207,3896,-897,
1547,7,20,2023,11,29,20,368,-2613,594,3231,174,3970,-1009,
1548,7,20,2023,11,29,20,378,-2560,677,3437,116,4276,-1117,
1549,7,20,2023,11,29,20,388,-2695,664,3697,-14,4814,-1206,
1550,7,20,2023,11,29,20,398,-2302,755,4484,-68,5868,-1293,
1551,7,20,2023,11,29,20,408,-1714,1090,5328,-287,7542,-1308,
1552,7,20,2023,11,29,20,418,-1276,1447,6127,-720,9736,-1385,
1553,7,20,2023,11,29,20,428,-1287,1650,6793,-1371,12034,-1703,
1554,7,20,2023,11,29,20,438,-1438,1607,6867,-2127,13890,-2264,
1555,7,20,2023,11,29,20,448,-1834,1221,6430,-2675,15099,-3005,
1556,7,20,2023,11,29,20,458,-3098,352,5388,-2807,15648,-3685,
1557,7,20,2023,11,29,20,468,-2545,-404,3702,-2138,15072,-3761,
1558,7,20,2023,11,29,20,478,3919,180,4617,-639,12981,-3085,
1559,7,20,2023,11,29,20,488,9541,1234,7534,225,9654,-2755,
1560,7,20,2023,11,29,20,498,-4234,661,13209,422,5033,-2186,
1561,7,20,2023,11,29,20,508,2964,3061,9264,1688,-2018,-859,
1562,7,20,2023,11,29,20,518,5956,3827,3820,1669,-5267,-137,
1563,7,20,2023,11,29,20,528,4407,2738,2431,1165,-5304,610,
1564,7,20,2023,11,29,20,538,3056,2066,2393,1411,-5210,1674,
1565,7,20,2023,11,29,20,548,2309,2068,2322,1990,-5405,3044,
1566,7,20,2023,11,29,20,558,1672,1635,1849,2174,-5486,4386,
1567,7,20,2023,11,29,20,568,1193,568,846,2128,-5349,5400,
1568,7,20,2023,11,29,20,578,854,-510,-180,2182,-4687,5902,
1569,7,20,2023,11,29,20,588,485,-1258,-488,2243,-3282,5689,
1570,7,20,2023,11,29,20,598,-381,-1645,120,2216,-1483,4872,
1571,7,20,2023,11,29,20,608,-1703,-1532,1282,2127,25,3801,
1572,7,20,2023,11,29,20,618,-3157,-1126,2387,1923,858,2775,
1573,7,20,2023,11,29,20,628,-4801,-953,3042,1544,1155,1917,
1574,7,20,2023,11,29,20,638,-6368,-759,3113,1246,1064,1209,
1575,7,20,2023,11,29,20,648,-7697,-808,2838,1286,753,759,
1576,7,20,2023,11,29,20,658,-9214,-425,2451,1607,350,690,
1577,7,20,2023,11,29,20,668,-11073,211,1946,1967,-273,850,
1578,7,20,2023,11,29,20,678,-13034,574,1514,2187,-1267,1068,
1579,7,20,2023,11,29,20,688,-14335,603,819,2318,-2808,1385,
1580,7,20,2023,11,29,20,698,-13530,475,-438,2323,-4717,1707,
1581,7,20,2023,11,29,20,708,-10649,-70,-3023,2050,-6381,1808,
1582,7,20,2023,11,29,20,718,-8183,-802,-5792,1593,-6515,1578,
1583,7,20,2023,11,29,20,728,-6891,-1336,-7940,1226,-5020,1059,
1584,7,20,2023,11,29,20,738,-6000,-569,-8661,1059,-2545,545,
1585,7,20,2023,11,29,20,748,-6733,1349,-7672,637,-248,354,
1586,7,20,2023,11,29,20,758,-7530,2295,-6323,-519,896,491,
1587,7,20,2023,11,29,20,768,-6555,1294,-6447,-1800,701,964,
1588,7,20,2023,11,29,20,778,-5392,-404,-7774,-2315,573,1421,
1589,7,20,2023,11,29,20,788,-4684,-1849,-8932,-2078,1432,1481,
1590,7,20,2023,11,29,20,798,-11758,2873,-4098,-2169,3212,613,
1591,7,20,2023,11,29,20,808,-29731,14836,19875,-9936,849,-2690,
1592,7,20,2023,11,29,20,818,-5777,-11402,-2662,-11569,-14333,397,
1593,7,20,2023,11,29,20,828,-7692,-6177,-332,-4043,-15853,-333,
1594,7,20,2023,11,29,20,838,-2033,7931,5281,977,-14684,-862,
1595,7,20,2023,11,29,20,848,4396,-267,7623,-2820,-12676,-750,
1596,7,20,2023,11,29,20,858,1459,250,5579,-2377,-10580,-1282,
1597,7,20,2023,11,29,20,868,-3771,1408,3361,-2111,-8915,-1627,
1598,7,20,2023,11,29,20,878,-2309,-942,4234,-2549,-7724,-1622,
1599,7,20,2023,11,29,20,888,-1203,259,4475,-2287,-6545,-1459,
1600,7,20,2023,11,29,20,898,-1602,-592,4389,-2172,-5223,-1355,
1601,7,20,2023,11,29,20,908,-1643,-1702,4510,-1623,-3640,-1054,
1602,7,20,2023,11,29,20,918,-1533,-918,4363,-955,-2232,-503,
1603,7,20,2023,11,29,20,928,-1402,-408,4279,-455,-1079,-101,
1604,7,20,2023,11,29,20,938,-1393,-253,4146,-117,-144,41,
1605,7,20,2023,11,29,20,948,-1406,158,3877,93,569,68,
1606,7,20,2023,11,29,20,958,-1517,376,3788,153,1054,47,
1607,7,20,2023,11,29,20,968,-1810,399,3683,183,1439,10,
1608,7,20,2023,11,29,20,978,-2385,310,3507,174,1628,-12,
1609,7,20,2023,11,29,20,988,-2583,152,3449,208,1580,-15,
1610,7,20,2023,11,29,20,998,-2600,121,3438,289,1450,22,
1611,7,20,2023,11,29,21,8,-2652,58,3410,379,1313,77,
1612,7,20,2023,11,29,21,18,-2598,112,3405,465,1184,146,
1613,7,20,2023,11,29,21,28,-2791,-50,3426,511,1049,239,
1614,7,20,2023,11,29,21,38,-2933,-160,3404,623,877,369,
1615,7,20,2023,11,29,21,48,-2826,16,3143,729,637,568,
1616,7,20,2023,11,29,21,68,-2170,608,3331,681,89,670,
1617,7,20,2023,11,29,21,78,-2158,619,3378,577,46,564,
1618,7,20,2023,11,29,21,88,-2065,552,3285,484,28,450,
1619,7,20,2023,11,29,21,98,-2311,521,3242,361,-45,319,
1620,7,20,2023,11,29,21,108,-2536,509,3144,217,-216,238,
1621,7,20,2023,11,29,21,118,-2296,637,2947,94,-490,186,
1622,7,20,2023,11,29,21,128,-2074,675,3201,-13,-739,132,
1623,7,20,2023,11,29,21,138,-2086,629,3388,-94,-814,74,
1624,7,20,2023,11,29,21,148,-1850,757,3293,-188,-810,13,
1625,7,20,2023,11,29,21,158,-1603,736,3451,-290,-771,-106,
1626,7,20,2023,11,29,21,168,-1571,586,3501,-354,-624,-245,
1627,7,20,2023,11,29,21,178,-1750,367,3467,-363,-399,-325,
1628,7,20,2023,11,29,21,188,-1931,90,3544,-281,-132,-298,
1629,7,20,2023,11,29,21,198,-1894,141,3559,-178,116,-226,
1630,7,20,2023,11,29,21,208,-1887,353,3412,-123,310,-221,
1631,7,20,2023,11,29,21,218,-2080,365,3425,-120,420,-268,
1632,7,20,2023,11,29,21,228,-2259,270,3469,-120,515,-309,
1633,7,20,2023,11,29,21,238,-1988,186,3635,-20,620,-340,
1634,7,20,2023,11,29,21,248,-1870,210,3711,56,837,-331,
1635,7,20,2023,11,29,21,258,-2107,231,3653,127,1094,-337,
1636,7,20,2023,11,29,21,268,-2249,246,3647,222,1359,-368,
1637,7,20,2023,11,29,21,278,-1894,294,3630,343,1683,-420,
1638,7,20,2023,11,29,21,288,-1697,558,3513,404,2007,-490,
1639,7,20,2023,11,29,21,298,-1980,636,3383,337,2243,-605,
1640,7,20,2023,11,29,21,308,-1768,571,3529,363,2536,-804,
1641,7,20,2023,11,29,21,318,-1576,632,3904,365,3022,-957,
1642,7,20,2023,11,29,21,328,-1530,490,4136,379,3764,-1082,
1643,7,20,2023,11,29,21,338,-1605,597,4275,401,4707,-1151,
1644,7,20,2023,11,29,21,348,-1647,680,4450,332,5841,-1176,
1645,7,20,2023,11,29,21,358,-1325,867,4887,305,7332,-1234,
1646,7,20,2023,11,29,21,368,-805,881,5405,190,9350,-1298,
1647,7,20,2023,11,29,21,378,-446,1030,5656,-74,11677,-1427,
1648,7,20,2023,11,29,21,388,-679,1067,5380,-575,13826,-1701,
1649,7,20,2023,11,29,21,398,-1516,1025,4578,-1138,15413,-2115,
1650,7,20,2023,11,29,21,408,-1511,1080,3040,-1637,16347,-2520,
1651,7,20,2023,11,29,21,418,-181,289,1408,-2003,16718,-2701,
1652,7,20,2023,11,29,21,428,1887,442,868,-2001,16642,-2745,
1653,7,20,2023,11,29,21,438,4195,782,2448,-1850,16298,-2602,
1654,7,20,2023,11,29,21,448,3860,-1167,7248,-572,15177,-1464,
1655,7,20,2023,11,29,21,458,-785,-938,11886,3051,11198,1076,
1656,7,20,2023,11,29,21,468,-8592,4043,15010,6373,4256,3503,
1657,7,20,2023,11,29,21,478,-2937,6032,11462,5353,-3426,4072,
1658,7,20,2023,11,29,21,488,113,4616,6642,1880,-8283,3956,
1659,7,20,2023,11,29,21,498,1822,2272,2583,-1604,-10209,3230,
1660,7,20,2023,11,29,21,508,1872,-392,484,-3239,-9960,2375,
1661,7,20,2023,11,29,21,518,799,-2657,-128,-2812,-8885,1830,
1662,7,20,2023,11,29,21,528,-253,-3923,-214,-719,-7908,1521,
1663,7,20,2023,11,29,21,538,-1458,-3286,260,2271,-7178,762,
1664,7,20,2023,11,29,21,548,-2053,-2068,228,4651,-6549,-81,
1665,7,20,2023,11,29,21,558,-1286,-553,-328,5591,-5659,-685,
1666,7,20,2023,11,29,21,568,-1541,1164,143,5522,-4133,-1228,
1667,7,20,2023,11,29,21,578,-2887,2853,1098,4554,-2528,-1515,
1668,7,20,2023,11,29,21,588,-5053,3462,1777,2853,-1412,-1226,
1669,7,20,2023,11,29,21,598,-7337,2886,2074,1113,-1026,-450,
1670,7,20,2023,11,29,21,608,-8830,1771,1931,101,-1318,574,
1671,7,20,2023,11,29,21,618,-9550,747,1295,1,-1942,1728,
1672,7,20,2023,11,29,21,628,-9698,44,538,474,-2499,2757,
1673,7,20,2023,11,29,21,638,-9747,-399,-2,1083,-2799,3481,
1674,7,20,2023,11,29,21,648,-10074,-642,-213,1499,-2891,3739,
1675,7,20,2023,11,29,21,658,-9878,-752,-463,1606,-3064,3574,
1676,7,20,2023,11,29,21,668,-9263,-780,-1231,1317,-3341,3223,
1677,7,20,2023,11,29,21,678,-8945,-861,-2118,621,-3424,2748,
1678,7,20,2023,11,29,21,688,-7972,-465,-3142,-401,-3343,2189,
1679,7,20,2023,11,29,21,698,-6312,343,-4395,-1750,-2967,1558,
1680,7,20,2023,11,29,21,708,-5663,473,-5147,-3265,-2015,974,
1681,7,20,2023,11,29,21,718,-5445,74,-5344,-4222,-873,750,
1682,7,20,2023,11,29,21,728,-5621,-912,-5151,-4150,230,995,
1683,7,20,2023,11,29,21,738,-5845,-2106,-4877,-2963,950,1459,
1684,7,20,2023,11,29,21,748,-5724,-2643,-4715,-924,1377,1805,
1685,7,20,2023,11,29,21,758,-5496,-2545,-4636,1136,1899,1790,
1686,7,20,2023,11,29,21,768,-5181,-1965,-4448,2739,2592,1396,
1687,7,20,2023,11,29,21,778,-4809,-1010,-4034,3451,3374,716,
1688,7,20,2023,11,29,21,788,-4607,920,-2776,3059,4216,-77,
1689,7,20,2023,11,29,21,798,-17881,20545,15622,-2414,4756,-1997,
1690,7,20,2023,11,29,21,808,-19674,4123,12438,-14037,-5394,72,
1691,7,20,2023,11,29,21,818,-2764,-15537,730,-11515,-13813,1684,
1692,7,20,2023,11,29,21,828,-4295,-802,3092,-771,-13871,288,
1693,7,20,2023,11,29,21,838,-2002,10744,4092,1511,-13449,-407,
1694,7,20,2023,11,29,21,848,11,-3849,5856,-3463,-11480,-693,
1695,7,20,2023,11,29,21,858,-1104,2228,4296,-1533,-10328,-1288,
1696,7,20,2023,11,29,21,868,-1805,1909,4386,-2430,-9207,-1372,
1697,7,20,2023,11,29,21,878,-57,332,4951,-3407,-7938,-1707,
1698,7,20,2023,11,29,21,888,-1012,-1272,4373,-2850,-6231,-1709,
1699,7,20,2023,11,29,21,898,-1813,-2191,4358,-1790,-4373,-1237,
1700,7,20,2023,11,29,21,908,-2031,-1099,4479,-970,-2820,-537,
1701,7,20,2023,11,29,21,928,-1390,-194,4118,-146,-1029,49,
1702,7,20,2023,11,29,21,938,-1278,292,3847,104,-401,134,
1703,7,20,2023,11,29,21,948,-1517,747,3609,137,40,135,
1704,7,20,2023,11,29,21,958,-1728,668,3514,108,325,64,
1705,7,20,2023,11,29,21,968,-1947,823,3508,41,477,-24,
1706,7,20,2023,11,29,21,978,-2066,700,3479,-124,481,-164,
1707,7,20,2023,11,29,21,988,-2042,438,3575,-209,469,-267,
1708,7,20,2023,11,29,21,998,-2042,318,3632,-227,518,-278,
1709,7,20,2023,11,29,22,8,-2075,78,3665,-195,586,-250,
1710,7,20,2023,11,29,22,18,-2080,-128,3651,-87,677,-158,
1711,7,20,2023,11,29,22,28,-2073,40,3581,20,760,-23,
1712,7,20,2023,11,29,22,38,-2112,203,3523,66,812,50,
1713,7,20,2023,11,29,22,48,-2197,167,3462,91,815,72,
1714,7,20,2023,11,29,22,58,-2213,182,3454,123,773,108,
1715,7,20,2023,11,29,22,68,-2264,238,3464,143,701,145,
1716,7,20,2023,11,29,22,78,-2335,284,3450,144,608,164,
1717,7,20,2023,11,29,22,88,-2339,350,3439,127,488,163,
1718,7,20,2023,11,29,22,98,-2249,507,3387,72,356,138,
1719,7,20,2023,11,29,22,108,-1992,697,3309,-17,224,63,
1720,7,20,2023,11,29,22,118,-1646,973,3300,-123,110,-71,
1721,7,20,2023,11,29,22,128,-1462,1073,3400,-264,48,-268,
1722,7,20,2023,11,29,22,138,-1570,995,3429,-432,40,-503,
1723,7,20,2023,11,29,22,148,-1830,644,3432,-567,99,-720,
1724,7,20,2023,11,29,22,158,-1943,393,3473,-646,178,-858,
1725,7,20,2023,11,29,22,168,-2001,111,3562,-656,289,-861,
1726,7,20,2023,11,29,22,178,-1967,1,3669,-599,473,-770,
1727,7,20,2023,11,29,22,188,-1915,-86,3693,-530,684,-641,
1728,7,20,2023,11,29,22,198,-2114,-142,3495,-456,838,-502,
1729,7,20,2023,11,29,22,208,-2057,-170,3389,-323,947,-392,
1730,7,20,2023,11,29,22,218,-2016,-123,3334,-194,1004,-315,
1731,7,20,2023,11,29,22,228,-2166,-9,3371,-93,1067,-271,
1732,7,20,2023,11,29,22,238,-2156,116,3433,-7,1182,-284,
1733,7,20,2023,11,29,22,248,-2222,183,3528,52,1319,-344,
1734,7,20,2023,11,29,22,258,-1902,183,3757,113,1570,-417,
1735,7,20,2023,11,29,22,268,-2039,101,3810,162,1915,-464,
1736,7,20,2023,11,29,22,278,-2033,34,3921,295,2388,-488,
1737,7,20,2023,11,29,22,288,-1721,211,4049,402,2967,-487,
1738,7,20,2023,11,29,22,298,-1965,340,3800,356,3471,-535,
1739,7,20,2023,11,29,22,308,-2550,302,3363,288,3777,-655,
1740,7,20,2023,11,29,22,318,-2906,293,3104,301,3952,-787,
1741,7,20,2023,11,29,22,328,-2557,213,3326,404,4255,-873,
1742,7,20,2023,11,29,22,338,-2313,205,3651,498,4773,-848,
1743,7,20,2023,11,29,22,348,-2148,-29,3854,552,5509,-703,
1744,7,20,2023,11,29,22,358,-1943,-29,3853,552,6329,-445,
1745,7,20,2023,11,29,22,368,-2185,300,3872,446,7124,-211,
1746,7,20,2023,11,29,22,378,-2469,560,3872,263,8000,-130,
1747,7,20,2023,11,29,22,388,-2226,808,4106,61,9139,-187,
1748,7,20,2023,11,29,22,398,-2143,1206,4691,-235,10371,-394,
1749,7,20,2023,11,29,22,408,-2265,1415,4673,-729,11414,-799,
1750,7,20,2023,11,29,22,418,-2468,1466,4254,-1293,12210,-1305,
1751,7,20,2023,11,29,22,428,-2044,1468,3137,-1773,12745,-1798,
1752,7,20,2023,11,29,22,438,-961,1796,2400,-2226,13183,-2183,
1753,7,20,2023,11,29,22,448,796,1533,1794,-2906,13659,-2449,
1754,7,20,2023,11,29,22,458,944,690,3207,-3130,14127,-2642,
1755,7,20,2023,11,29,22,468,3549,855,7792,-2314,12775,-1942,
1756,7,20,2023,11,29,22,478,1568,1498,12682,-278,8774,-525,
1757,7,20,2023,11,29,22,488,-7759,2396,16100,1671,1713,1593,
1758,7,20,2023,11,29,22,498,994,4799,9222,1711,-6601,2935,
1759,7,20,2023,11,29,22,508,4580,4024,3387,367,-9405,3482,
1760,7,20,2023,11,29,22,518,3337,1539,1622,-1287,-8322,3536,
1761,7,20,2023,11,29,22,528,670,-672,2369,-1448,-6896,3381,
1762,7,20,2023,11,29,22,538,-1214,-1155,3915,-340,-6575,2911,
1763,7,20,2023,11,29,22,548,-2047,-596,4741,859,-7276,2243,
1764,7,20,2023,11,29,22,558,-2313,46,4601,1352,-8272,1516,
1765,7,20,2023,11,29,22,568,-2476,97,4068,1289,-8908,826,
1766,7,20,2023,11,29,22,578,-2612,-212,3484,1250,-9031,361,
1767,7,20,2023,11,29,22,588,-2445,-393,2748,1483,-8731,184,
1768,7,20,2023,11,29,22,598,-1808,-323,1817,1756,-7878,106,
1769,7,20,2023,11,29,22,608,-1465,-124,1500,1858,-6285,-9,
1770,7,20,2023,11,29,22,618,-2035,-6,2054,1828,-4309,-107,
1771,7,20,2023,11,29,22,628,-3066,127,3018,1774,-2587,-144,
1772,7,20,2023,11,29,22,638,-4170,269,3959,1800,-1430,-37,
1773,7,20,2023,11,29,22,648,-5189,417,4687,1928,-866,164,
1774,7,20,2023,11,29,22,658,-6192,585,4999,2092,-764,396,
1775,7,20,2023,11,29,22,668,-7353,598,4916,2197,-956,613,
1776,7,20,2023,11,29,22,678,-8356,471,4543,2310,-1416,862,
1777,7,20,2023,11,29,22,688,-8971,430,4074,2447,-2062,1207,
1778,7,20,2023,11,29,22,698,-9320,607,3557,2428,-2776,1567,
1779,7,20,2023,11,29,22,708,-9066,992,2684,2041,-3496,1781,
1780,7,20,2023,11,29,22,718,-8501,1145,1635,1276,-3952,1821,
1781,7,20,2023,11,29,22,728,-7861,1257,441,245,-4053,1718,
1782,7,20,2023,11,29,22,738,-6671,1409,-1024,-759,-3849,1594,
1783,7,20,2023,11,29,22,748,-6010,1225,-2320,-1601,-3129,1545,
1784,7,20,2023,11,29,22,758,-6397,771,-2918,-1935,-2057,1642,
1785,7,20,2023,11,29,22,768,-7188,9,-3314,-1524,-1253,1886,
1786,7,20,2023,11,29,22,788,-7849,-2887,-5175,1547,-1184,2401,
1787,7,20,2023,11,29,22,798,-6895,-4001,-6878,4001,-1381,2624,
1788,7,20,2023,11,29,22,808,-5308,-4503,-8392,6315,-716,2464,
1789,7,20,2023,11,29,22,818,-4272,-3745,-8446,7758,1168,1601,
1790,7,20,2023,11,29,22,828,-4776,-1900,-6934,7601,3643,180,
1791,7,20,2023,11,29,22,838,-5800,261,-4905,5699,5471,-1204,
1792,7,20,2023,11,29,22,848,-6709,2656,-2695,2536,6145,-1989,
1793,7,20,2023,11,29,22,858,-22849,21446,8713,-5141,5867,-3467,
1794,7,20,2023,11,29,22,868,-23040,8509,8892,-15739,-3578,-1910,
1795,7,20,2023,11,29,22,878,-9929,-14868,-4775,-16513,-14157,-1371,
1796,7,20,2023,11,29,22,888,-793,-8048,5579,-6222,-14841,-2045,
1797,7,20,2023,11,29,22,898,6423,10509,10787,-63,-12928,-2333,
1798,7,20,2023,11,29,22,908,875,632,5677,-4259,-9296,-2752,
1799,7,20,2023,11,29,22,918,-3746,-483,2688,-4107,-6925,-3639,
1800,7,20,2023,11,29,22,928,299,-6964,4963,-2955,-5034,-2718,
1801,7,20,2023,11,29,22,938,-1983,-2452,4365,-1122,-2802,-1027,
1802,7,20,2023,11,29,22,948,-1690,217,4158,-469,-1346,-218,
1803,7,20,2023,11,29,22,958,-2057,-834,3978,-219,-533,-191,
1804,7,20,2023,11,29,22,968,-2166,-74,3749,114,-3,5,
1805,7,20,2023,11,29,22,978,-2296,668,3534,162,266,173,
1806,7,20,2023,11,29,22,988,-2387,742,3420,51,270,21,
1807,7,20,2023,11,29,22,998,-2311,944,3349,-113,80,-224,
1808,7,20,2023,11,29,23,8,-2141,971,3451,-333,-140,-429,
1809,7,20,2023,11,29,23,18,-2095,614,3596,-500,-187,-591,
1810,7,20,2023,11,29,23,28,-2091,466,3634,-521,-83,-654,
1811,7,20,2023,11,29,23,38,-2116,155,3639,-405,93,-624,
1812,7,20,2023,11,29,23,48,-2122,-30,3616,-334,311,-541,
1813,7,20,2023,11,29,23,58,-2055,196,3596,-232,495,-455,
1814,7,20,2023,11,29,23,68,-1987,233,3612,-156,689,-456,
1815,7,20,2023,11,29,23,78,-1958,-42,3669,-70,944,-474,
1816,7,20,2023,11,29,23,88,-1959,-208,3654,64,1224,-418,
1817,7,20,2023,11,29,23,98,-1981,-84,3622,241,1489,-298,
1818,7,20,2023,11,29,23,108,-2074,-51,3592,367,1738,-182,
1819,7,20,2023,11,29,23,118,-2120,48,3557,466,1942,-96,
1820,7,20,2023,11,29,23,128,-2209,47,3500,485,2093,-14,
1821,7,20,2023,11,29,23,138,-2313,14,3312,465,2171,77,
1822,7,20,2023,11,29,23,148,-2412,217,3195,461,2182,151,
1823,7,20,2023,11,29,23,158,-2376,381,3207,435,2162,163,
1824,7,20,2023,11,29,23,168,-2393,366,3169,386,2136,121,
1825,7,20,2023,11,29,23,178,-2475,439,3103,334,2103,79,
1826,7,20,2023,11,29,23,188,-2492,589,3061,271,2023,13,
1827,7,20,2023,11,29,23,198,-2631,469,2992,198,1900,-81,
1828,7,20,2023,11,29,23,208,-2723,392,3000,169,1755,-136,
1829,7,20,2023,11,29,23,218,-2728,417,2970,140,1583,-163,
1830,7,20,2023,11,29,23,228,-2707,417,2955,109,1412,-204,
1831,7,20,2023,11,29,23,238,-2690,349,2965,85,1266,-266,
1832,7,20,2023,11,29,23,248,-2667,188,2983,67,1165,-299,
1833,7,20,2023,11,29,23,258,-2641,70,3014,72,1111,-258,
1834,7,20,2023,11,29,23,268,-2659,27,3014,92,1093,-166,
1835,7,20,2023,11,29,23,278,-2678,69,3019,129,1117,-85,
1836,7,20,2023,11,29,23,288,-2658,99,3053,174,1183,-9,
1837,7,20,2023,11,29,23,298,-2677,119,3050,210,1264,72,
1838,7,20,2023,11,29,23,308,-2723,34,3022,239,1348,158,
1839,7,20,2023,11,29,23,318,-2763,153,3059,262,1438,253,
1840,7,20,2023,11,29,23,328,-2617,327,3096,237,1561,311,
1841,7,20,2023,11,29,23,338,-2595,561,3119,208,1798,286,
1842,7,20,2023,11,29,23,348,-2570,767,3065,136,2164,170,
1843,7,20,2023,11,29,23,358,-2587,652,3020,39,2622,16,
1844,7,20,2023,11,29,23,368,-2644,604,3019,2,3140,-135,
1845,7,20,2023,11,29,23,378,-2547,572,3128,-52,3708,-289,
1846,7,20,2023,11,29,23,388,-2543,336,3207,-74,4417,-411,
1847,7,20,2023,11,29,23,398,-2507,229,3264,-37,5306,-409,
1848,7,20,2023,11,29,23,408,-2459,413,3302,-1,6289,-374,
1849,7,20,2023,11,29,23,418,-2539,469,3323,-48,7327,-402,
1850,7,20,2023,11,29,23,428,-2405,543,3269,-120,8433,-532,
1851,7,20,2023,11,29,23,438,-2726,604,3383,-201,9686,-710,
1852,7,20,2023,11,29,23,448,-3170,948,3602,-294,10985,-916,
1853,7,20,2023,11,29,23,458,-3593,959,3775,-368,12272,-1194,
1854,7,20,2023,11,29,23,468,-4878,764,4154,-451,13508,-1478,
1855,7,20,2023,11,29,23,478,-6049,539,5088,-495,14507,-1702,
1856,7,20,2023,11,29,23,488,-7434,393,5647,-358,14867,-1702,
1857,7,20,2023,11,29,23,498,-8235,365,6209,-235,14482,-1647,
1858,7,20,2023,11,29,23,508,-7639,120,5726,-139,13490,-1752,
1859,7,20,2023,11,29,23,518,-5992,235,4645,-33,12879,-2028,
1860,7,20,2023,11,29,23,528,-5276,3172,4630,20,13139,-2397,
1861,7,20,2023,11,29,23,538,-6529,2428,6950,478,12979,-1747,
1862,7,20,2023,11,29,23,548,-4305,446,5739,1694,11531,-1343,
1863,7,20,2023,11,29,23,558,-4341,2999,5086,3494,10269,-1127,
1864,7,20,2023,11,29,23,568,-5471,4876,8826,3287,7363,-284,
1865,7,20,2023,11,29,23,578,-15084,6747,15462,2457,1742,1290,
1866,7,20,2023,11,29,23,588,-4811,5507,8006,492,-6444,2378,
1867,7,20,2023,11,29,23,598,212,1391,2470,-3840,-9078,1521,
1868,7,20,2023,11,29,23,608,-640,3,2194,-4840,-8589,579,
1869,7,20,2023,11,29,23,618,-677,-1147,2006,-5011,-8358,-293,
1870,7,20,2023,11,29,23,628,-1105,-1711,2366,-3802,-8528,-665,
1871,7,20,2023,11,29,23,648,-2190,-717,3132,-561,-9575,-952,
1872,7,20,2023,11,29,23,658,-2336,-88,2987,446,-10142,-1096,
1873,7,20,2023,11,29,23,668,-2573,327,2810,1009,-10600,-1164,
1874,7,20,2023,11,29,23,678,-2827,742,2585,1261,-10973,-1110,
1875,7,20,2023,11,29,23,688,-3115,1092,2479,1254,-11158,-884,
1876,7,20,2023,11,29,23,698,-3400,1255,2453,1074,-11236,-520,
1877,7,20,2023,11,29,23,708,-3537,1156,2392,839,-11236,-51,
1878,7,20,2023,11,29,23,718,-3627,708,2370,725,-11096,477,
1879,7,20,2023,11,29,23,728,-3871,199,2559,869,-10849,1037,
1880,7,20,2023,11,29,23,738,-4165,-149,2864,1165,-10616,1550,
1881,7,20,2023,11,29,23,748,-4469,-403,3224,1427,-10419,1900,
1882,7,20,2023,11,29,23,758,-4760,-560,3610,1578,-10280,2020,
1883,7,20,2023,11,29,23,768,-4970,-682,3950,1563,-10180,1905,
1884,7,20,2023,11,29,23,778,-5165,-842,4235,1471,-10060,1609,
1885,7,20,2023,11,29,23,788,-5449,-1056,4482,1482,-9907,1262,
1886,7,20,2023,11,29,23,798,-5823,-1153,4807,1709,-9752,988,
1887,7,20,2023,11,29,23,808,-6490,-1097,5181,2146,-9649,861,
1888,7,20,2023,11,29,23,818,-7214,-842,5512,2711,-9692,903,
1889,7,20,2023,11,29,23,828,-7852,-341,5783,3238,-9867,1094,
1890,7,20,2023,11,29,23,838,-8395,433,5868,3516,-10122,1362,
1891,7,20,2023,11,29,23,848,-9021,1253,5742,3392,-10408,1647,
1892,7,20,2023,11,29,23,858,-9446,1784,4985,2764,-10707,1937,
1893,7,20,2023,11,29,23,868,-9319,1766,3377,1789,-10944,2237,
1894,7,20,2023,11,29,23,878,-9636,1050,1460,900,-10777,2520,
1895,7,20,2023,11,29,23,888,-10147,429,-656,505,-10197,2670,
1896,7,20,2023,11,29,23,898,-10724,103,-3178,485,-9299,2602,
1897,7,20,2023,11,29,23,908,-11422,-1377,-5786,674,-7916,2196,
1898,7,20,2023,11,29,23,918,-11429,-4220,-8207,1827,-6026,1698,
1899,7,20,2023,11,29,23,928,-10633,-4978,-9443,4257,-3679,1561,
1900,7,20,2023,11,29,23,938,-9822,-2651,-8521,5894,-909,1709,
1901,7,20,2023,11,29,23,948,-9313,-332,-5861,4908,1892,1435,
1902,7,20,2023,11,29,23,958,-2347,5134,638,1243,4074,768,
1903,7,20,2023,11,29,23,968,362,4493,9804,-4756,5675,-18,
1904,7,20,2023,11,29,23,978,3208,429,8825,-5203,4521,-738,
1905,7,20,2023,11,29,23,988,5154,-1085,-591,-3982,3825,-460,
1906,7,20,2023,11,29,23,998,-1336,-3303,699,-3941,7215,-1047,
1907,7,20,2023,11,29,24,8,-7994,-3871,6859,-2569,8427,-1147,
1908,7,20,2023,11,29,24,18,-7102,-3089,7245,-1498,6269,-926,
1909,7,20,2023,11,29,24,28,-2337,-1559,4451,-1166,5024,-1424,
1910,7,20,2023,11,29,24,38,-2645,1048,4715,-974,5861,-1800,
1911,7,20,2023,11,29,24,48,-5136,2596,5627,-1076,6296,-1265,
1912,7,20,2023,11,29,24,58,-5161,535,5139,-1406,5797,-767,
1913,7,20,2023,11,29,24,68,-5763,-1189,5970,-1603,5087,-863,
1914,7,20,2023,11,29,24,78,-7029,-273,6592,-1859,3491,-1210,
1915,7,20,2023,11,29,24,88,-4539,613,4455,-1812,1248,-1067,
1916,7,20,2023,11,29,24,98,-2807,-194,4458,-1253,217,-599,
1917,7,20,2023,11,29,24,108,-2185,531,3802,-727,-138,-335,
1918,7,20,2023,11,29,24,118,-2456,1304,3654,-568,-125,-282,
1919,7,20,2023,11,29,24,128,-2308,283,3802,-514,-158,-306,
1920,7,20,2023,11,29,24,138,-2141,69,3788,-365,-175,-254,
1921,7,20,2023,11,29,24,148,-2089,225,3764,-183,-142,-140,
1922,7,20,2023,11,29,24,158,-1926,8,3799,-33,-93,-42,
1923,7,20,2023,11,29,24,168,-1850,-60,3800,116,-13,55,
1924,7,20,2023,11,29,24,178,-1892,47,3767,262,72,153,
1925,7,20,2023,11,29,24,188,-1883,85,3732,378,135,219,
1926,7,20,2023,11,29,24,198,-1815,118,3697,478,167,287,
1927,7,20,2023,11,29,24,208,-1842,313,3670,563,205,317,
1928,7,20,2023,11,29,24,218,-1875,505,3619,582,243,315,
1929,7,20,2023,11,29,24,228,-1816,625,3578,533,238,279,
1930,7,20,2023,11,29,24,238,-1737,736,3570,440,219,208,
1931,7,20,2023,11,29,24,248,-1744,798,3572,314,208,124,
1932,7,20,2023,11,29,24,258,-1778,825,3552,180,198,19,
1933,7,20,2023,11,29,24,268,-1843,731,3554,21,172,-84,
1934,7,20,2023,11,29,24,278,-1862,575,3573,-135,140,-181,
1935,7,20,2023,11,29,24,288,-1884,565,3592,-270,113,-248,
1936,7,20,2023,11,29,24,298,-1947,562,3606,-377,82,-298,
1937,7,20,2023,11,29,24,308,-1999,500,3608,-462,21,-348,
1938,7,20,2023,11,29,24,318,-2000,462,3623,-517,-84,-390,
1939,7,20,2023,11,29,24,328,-1966,474,3607,-560,-207,-423,
1940,7,20,2023,11,29,24,338,-1915,422,3600,-583,-315,-443,
1941,7,20,2023,11,29,24,348,-1751,419,3602,-548,-375,-444,
1942,7,20,2023,11,29,24,358,-1581,525,3577,-507,-361,-435,
1943,7,20,2023,11,29,24,368,-1603,257,3639,-421,-237,-386,
1944,7,20,2023,11,29,24,378,-1740,141,3677,-306,-93,-317,
1945,7,20,2023,11,29,24,388,-1700,223,3651,-228,-1,-275,
1946,7,20,2023,11,29,24,398,-1722,383,3648,-205,78,-279,
1947,7,20,2023,11,29,24,408,-1760,345,3669,-196,152,-299,
1948,7,20,2023,11,29,24,418,-1843,327,3655,-200,208,-307,
1949,7,20,2023,11,29,24,428,-1862,338,3631,-208,219,-307,
1950,7,20,2023,11,29,24,438,-1819,375,3616,-212,208,-317,
1951,7,20,2023,11,29,24,448,-1842,307,3664,-210,232,-324,
1952,7,20,2023,11,29,24,458,-1915,242,3663,-215,257,-330,
1953,7,20,2023,11,29,24,468,-1915,242,3660,-226,268,-331,
1954,7,20,2023,11,29,24,478,-1918,292,3661,-243,284,-330,
1955,7,20,2023,11,29,24,488,-1933,163,3639,-239,307,-328,
1956,7,20,2023,11,29,24,508,-1875,177,3626,-111,355,-241,
1957,7,20,2023,11,29,24,518,-1847,241,3655,-69,407,-226,
1958,7,20,2023,11,29,24,528,-1853,248,3675,-45,470,-233,
1959,7,20,2023,11,29,24,538,-1910,283,3666,-42,516,-249,
1960,7,20,2023,11,29,24,548,-1897,242,3649,-28,560,-262,
1961,7,20,2023,11,29,24,558,-1912,136,3654,7,624,-249,
1962,7,20,2023,11,29,24,568,-1920,125,3641,54,694,-213,
1963,7,20,2023,11,29,24,578,-1919,161,3632,115,786,-177,
1964,7,20,2023,11,29,24,588,-1962,163,3640,155,893,-147,
1965,7,20,2023,11,29,24,598,-1991,143,3657,183,1002,-116,
1966,7,20,2023,11,29,24,608,-1980,151,3663,218,1128,-86,
1967,7,20,2023,11,29,24,618,-1899,103,3679,295,1299,-48,
1968,7,20,2023,11,29,24,628,-1919,79,3702,433,1528,16,
1969,7,20,2023,11,29,24,638,-1895,149,3747,617,1828,81,
1970,7,20,2023,11,29,24,648,-1891,132,3799,808,2230,142,
1971,7,20,2023,11,29,24,658,-1872,379,3875,952,2747,164,
1972,7,20,2023,11,29,24,668,-1767,503,3981,978,3374,105,
1973,7,20,2023,11,29,24,678,-1770,507,3924,950,4122,-4,
1974,7,20,2023,11,29,24,688,-1609,402,4033,931,5040,-135,
1975,7,20,2023,11,29,24,698,-1209,707,4252,896,6138,-207,
1976,7,20,2023,11,29,24,708,-1121,1051,4363,653,7459,-285,
1977,7,20,2023,11,29,24,718,-1573,1819,4483,172,8914,-540,
1978,7,20,2023,11,29,24,728,-1425,1268,4045,-465,10519,-981,
1979,7,20,2023,11,29,24,738,-2330,1111,4274,-556,12164,-1550,
1980,7,20,2023,11,29,24,748,-3115,1038,4793,-542,13475,-2188,
1981,7,20,2023,11,29,24,758,-4506,472,5156,-647,14425,-2585,
1982,7,20,2023,11,29,24,768,-6285,17,6523,-191,14819,-2525,
1983,7,20,2023,11,29,24,778,-6605,-95,6582,618,14260,-2312,
1984,7,20,2023,11,29,24,788,-6601,911,7093,1140,13331,-2311,
1985,7,20,2023,11,29,24,798,-7175,2627,6938,1185,11955,-2670,
1986,7,20,2023,11,29,24,808,-6432,2751,5835,522,10388,-3160,
1987,7,20,2023,11,29,24,818,-3359,2018,5011,9,9233,-3226,
1988,7,20,2023,11,29,24,828,524,1979,4390,237,8551,-2997,
1989,7,20,2023,11,29,24,838,-7289,2229,7230,430,7353,-2353,
1990,7,20,2023,11,29,24,848,-6663,2672,9891,1372,3415,-1364,
1991,7,20,2023,11,29,24,858,-841,4017,5249,1857,-655,-215,
1992,7,20,2023,11,29,24,868,1307,4007,2342,1090,-1433,339,
1993,7,20,2023,11,29,24,878,178,2898,2353,-57,-933,707,
1994,7,20,2023,11,29,24,888,-520,1940,2505,-848,-811,1073,
1995,7,20,2023,11,29,24,898,-636,1368,2529,-966,-1225,1607,
1996,7,20,2023,11,29,24,908,-976,1095,2746,-731,-1840,2215,
1997,7,20,2023,11,29,24,918,-860,981,2655,-518,-2523,2697,
1998,7,20,2023,11,29,24,928,-786,686,2480,-457,-3109,2968,
1999,7,20,2023,11,29,24,938,-942,246,2448,-479,-3620,3090,
2000,7,20,2023,11,29,24,948,-1262,-98,2486,-479,-4133,3117,
2001,7,20,2023,11,29,24,958,-1626,-222,2555,-482,-4716,3034,
2002,7,20,2023,11,29,24,968,-1822,-349,2528,-637,-5331,2845,
2003,7,20,2023,11,29,24,978,-1983,-553,2464,-896,-5897,2551,
2004,7,20,2023,11,29,24,988,-2132,-838,2347,-1125,-6396,2184,
2005,7,20,2023,11,29,24,998,-2258,-1208,2184,-1217,-6803,1777,
2006,7,20,2023,11,29,25,8,-2360,-1561,1992,-1050,-7096,1339,
2007,7,20,2023,11,29,25,18,-2582,-1563,1929,-574,-7291,863,
2008,7,20,2023,11,29,25,28,-2819,-1115,1943,-17,-7429,411,
2009,7,20,2023,11,29,25,38,-2972,-529,1978,308,-7506,50,
2010,7,20,2023,11,29,25,48,-3075,-84,2073,354,-7492,-217,
2011,7,20,2023,11,29,25,58,-3257,147,2116,238,-7402,-390,
2012,7,20,2023,11,29,25,68,-3526,181,2073,147,-7268,-440,
2013,7,20,2023,11,29,25,78,-3792,81,1881,189,-7098,-360,
2014,7,20,2023,11,29,25,88,-4162,-79,1596,383,-6817,-136,
2015,7,20,2023,11,29,25,98,-4634,-305,1280,715,-6384,185,
2016,7,20,2023,11,29,25,108,-5266,-632,959,1179,-5798,562,
2017,7,20,2023,11,29,25,118,-6185,-896,610,1769,-5151,981,
2018,7,20,2023,11,29,25,128,-7093,-1096,47,2386,-4529,1394,
2019,7,20,2023,11,29,25,138,-7536,-1183,-678,2847,-3908,1679,
2020,7,20,2023,11,29,25,148,-7460,-1103,-1403,3049,-3233,1752,
2021,7,20,2023,11,29,25,158,-7144,-915,-1803,2856,-2442,1555,
2022,7,20,2023,11,29,25,168,-6649,-634,-1789,2214,-1620,1076,
2023,7,20,2023,11,29,25,178,-6185,-421,-1699,1256,-877,441,
2024,7,20,2023,11,29,25,188,-6019,-422,-1565,256,-194,-208,
2025,7,20,2023,11,29,25,198,-5855,-504,-1419,-434,366,-657,
2026,7,20,2023,11,29,25,208,-5673,-422,-1362,-669,767,-783,
2027,7,20,2023,11,29,25,218,-5687,-257,-1368,-575,1031,-655,
2028,7,20,2023,11,29,25,228,-5703,-119,-1392,-246,1203,-334,
2029,7,20,2023,11,29,25,238,-5437,87,-1449,231,1319,141,
2030,7,20,2023,11,29,25,248,-5075,383,-1487,676,1484,626,
2031,7,20,2023,11,29,25,258,-4694,540,-1517,921,1778,1005,
2032,7,20,2023,11,29,25,268,-4307,465,-1512,1052,2207,1252,
2033,7,20,2023,11,29,25,278,-3920,364,-1259,1094,2819,1338,
2034,7,20,2023,11,29,25,288,-3747,285,-883,962,3524,1295,
2035,7,20,2023,11,29,25,298,-3808,284,-436,744,4178,1174,
2036,7,20,2023,11,29,25,308,-4026,473,92,482,4662,1041,
2037,7,20,2023,11,29,25,318,-4178,612,424,108,4924,915,
2038,7,20,2023,11,29,25,328,-4386,496,684,-219,5012,813,
2039,7,20,2023,11,29,25,338,-4481,-25,846,-254,4855,759,
2040,7,20,2023,11,29,25,348,-4515,-669,818,172,4477,687,
2041,7,20,2023,11,29,25,368,-4675,-1408,436,2534,3520,353,
2042,7,20,2023,11,29,25,378,-12410,8395,6575,2422,3469,-441,
2043,7,20,2023,11,29,25,388,-23824,14229,14094,-5268,-1046,-736,
2044,7,20,2023,11,29,25,398,-5849,-4251,-3780,-6688,-12333,1273,
2045,7,20,2023,11,29,25,408,-7020,-432,-276,-3676,-13230,-310,
2046,7,20,2023,11,29,25,418,-1338,3022,6465,-1181,-13028,-731,
2047,7,20,2023,11,29,25,428,3782,-743,8784,-2291,-11644,-506,
2048,7,20,2023,11,29,25,438,432,278,5729,-1270,-9774,-641,
2049,7,20,2023,11,29,25,448,-3865,3513,3038,-1029,-8037,-1360,
2050,7,20,2023,11,29,25,458,-1505,-522,4155,-2776,-6852,-1702,
2051,7,20,2023,11,29,25,468,-958,-1331,4321,-2615,-5754,-1436,
2052,7,20,2023,11,29,25,478,-1958,0,3852,-1807,-4546,-842,
2053,7,20,2023,11,29,25,488,-1642,-746,4172,-1184,-3341,-537,
2054,7,20,2023,11,29,25,498,-2019,-877,4114,-510,-2251,-210,
2055,7,20,2023,11,29,25,508,-1684,95,4104,17,-1417,190,
2056,7,20,2023,11,29,25,518,-1631,556,3883,177,-818,370,
2057,7,20,2023,11,29,25,528,-1308,873,3695,207,-393,306,
2058,7,20,2023,11,29,25,538,-1517,973,3674,136,-57,120,
2059,7,20,2023,11,29,25,548,-1665,922,3584,-18,182,-70,
2060,7,20,2023,11,29,25,558,-1794,1023,3529,-202,271,-259,
2061,7,20,2023,11,29,25,568,-2004,1154,3471,-423,256,-458,
2062,7,20,2023,11,29,25,578,-2251,714,3444,-550,248,-563,
2063,7,20,2023,11,29,25,588,-2124,651,3485,-553,257,-539,
2064,7,20,2023,11,29,25,598,-2116,419,3542,-514,272,-495,
2065,7,20,2023,11,29,25,608,-2034,190,3612,-398,335,-420,
2066,7,20,2023,11,29,25,618,-1956,173,3659,-250,476,-309,
2067,7,20,2023,11,29,25,628,-1882,245,3677,-123,642,-197,
2068,7,20,2023,11,29,25,638,-1869,242,3657,-17,825,-117,
2069,7,20,2023,11,29,25,648,-1896,317,3610,71,1006,-56,
2070,7,20,2023,11,29,25,658,-1927,448,3545,142,1162,-38,
2071,7,20,2023,11,29,25,668,-2005,481,3483,177,1270,-56,
2072,7,20,2023,11,29,25,678,-2135,449,3405,227,1311,-60,
2073,7,20,2023,11,29,25,688,-2169,526,3377,271,1281,-62,
2074,7,20,2023,11,29,25,698,-2172,548,3354,293,1205,-88,
2075,7,20,2023,11,29,25,708,-2258,645,3300,287,1100,-125,
2076,7,20,2023,11,29,25,718,-2252,669,3276,211,968,-173,
2077,7,20,2023,11,29,25,728,-2234,708,3262,141,816,-256,
2078,7,20,2023,11,29,25,738,-2206,728,3303,41,658,-344,
2079,7,20,2023,11,29,25,748,-2192,712,3338,-78,531,-426,
2080,7,20,2023,11,29,25,758,-2325,779,3322,-194,431,-495,
2081,7,20,2023,11,29,25,768,-2365,751,3286,-312,332,-569,
2082,7,20,2023,11,29,25,778,-2298,598,3234,-422,229,-622,
2083,7,20,2023,11,29,25,788,-2394,383,3096,-530,80,-604,
2084,7,20,2023,11,29,25,798,-2481,179,3157,-559,-63,-529,
2085,7,20,2023,11,29,25,808,-2489,-23,3241,-534,-173,-412,
2086,7,20,2023,11,29,25,818,-2425,10,3259,-471,-278,-277,
2087,7,20,2023,11,29,25,828,-2341,174,3358,-426,-352,-165,
2088,7,20,2023,11,29,25,838,-2369,321,3359,-401,-364,-113,
2089,7,20,2023,11,29,25,848,-2390,243,3399,-328,-345,-87,
2090,7,20,2023,11,29,25,858,-2446,186,3462,-211,-305,-36,
2091,7,20,2023,11,29,25,868,-2343,208,3427,-135,-287,19,
2092,7,20,2023,11,29,25,878,-2255,440,3147,-116,-325,32,
2093,7,20,2023,11,29,25,888,-2012,466,3381,-131,-353,-38,
2094,7,20,2023,11,29,25,898,-1801,570,3591,-109,-205,-146,
2095,7,20,2023,11,29,25,908,-1671,508,3697,-86,100,-256,
2096,7,20,2023,11,29,25,918,-1621,253,3868,6,548,-346,
2097,7,20,2023,11,29,25,928,-1594,253,3955,179,1140,-389,
2098,7,20,2023,11,29,25,938,-1657,472,3972,310,1754,-420,
2099,7,20,2023,11,29,25,948,-1844,636,3921,329,2311,-486,
2100,7,20,2023,11,29,25,958,-2010,744,3805,280,2800,-628,
2101,7,20,2023,11,29,25,968,-2199,610,3723,229,3250,-824,
2102,7,20,2023,11,29,25,978,-2155,583,3809,251,3805,-983,
2103,7,20,2023,11,29,25,988,-2027,569,3981,245,4540,-1083,
2104,7,20,2023,11,29,25,998,-2120,556,4113,235,5522,-1146,
2105,7,20,2023,11,29,26,8,-1680,573,4524,215,6972,-1147,
2106,7,20,2023,11,29,26,18,-1307,831,4971,33,8853,-1076,
2107,7,20,2023,11,29,26,28,-1323,928,5293,-436,10937,-1091,
2108,7,20,2023,11,29,26,38,-1831,977,5685,-888,12672,-1273,
2109,7,20,2023,11,29,26,48,-2980,1258,5702,-1247,13593,-1523,
2110,7,20,2023,11,29,26,58,-3848,1038,5363,-1627,13835,-1862,
2111,7,20,2023,11,29,26,68,-4236,1030,5022,-1715,13486,-2213,
2112,7,20,2023,11,29,26,78,-3000,1366,3676,-1979,12711,-2566,
2113,7,20,2023,11,29,26,88,933,1647,1654,-2457,12191,-2884,
2114,7,20,2023,11,29,26,98,719,1860,961,-3028,12288,-3225,
2115,7,20,2023,11,29,26,108,720,902,4278,-3411,11700,-3057,
2116,7,20,2023,11,29,26,118,5107,-433,8396,-2410,8915,-2322,
2117,7,20,2023,11,29,26,128,-1110,-758,10360,-159,4852,-1016,
2118,7,20,2023,11,29,26,138,-3584,1580,11781,2179,-885,363,
2119,7,20,2023,11,29,26,148,3061,3369,5717,2629,-6819,997,
2120,7,20,2023,11,29,26,158,4618,3173,1880,1191,-8300,1078,
2121,7,20,2023,11,29,26,168,3795,1583,849,-339,-7595,1216,
2122,7,20,2023,11,29,26,178,1743,172,1626,-639,-6823,1551,
2123,7,20,2023,11,29,26,188,84,-119,2565,62,-6885,1935,
2124,7,20,2023,11,29,26,198,-291,191,2564,787,-7507,2197,
2125,7,20,2023,11,29,26,208,-213,321,1994,1037,-7962,2247,
2126,7,20,2023,11,29,26,228,-665,-1257,811,1267,-7129,1947,
2127,7,20,2023,11,29,26,238,-422,-1326,-67,1875,-6024,1596,
2128,7,20,2023,11,29,26,248,-288,-764,23,2312,-4177,1146,
2129,7,20,2023,11,29,26,258,-1371,-403,1167,2433,-1999,797,
2130,7,20,2023,11,29,26,268,-3182,-155,2366,2506,-381,605,
2131,7,20,2023,11,29,26,278,-5318,92,3230,2630,472,570,
2132,7,20,2023,11,29,26,288,-7521,190,3552,2710,611,686,
2133,7,20,2023,11,29,26,298,-9198,177,3350,2750,196,937,
2134,7,20,2023,11,29,26,308,-10405,71,2846,2769,-497,1223,
2135,7,20,2023,11,29,26,318,-11125,-75,2097,2783,-1271,1504,
2136,7,20,2023,11,29,26,328,-11563,-234,1287,2840,-1969,1792,
2137,7,20,2023,11,29,26,338,-11461,-292,348,2863,-2544,2006,
2138,7,20,2023,11,29,26,348,-10433,-160,-935,2808,-2983,2245,
2139,7,20,2023,11,29,26,358,-9130,286,-2513,2535,-3053,2508,
2140,7,20,2023,11,29,26,368,-8108,759,-3888,1809,-2515,2678,
2141,7,20,2023,11,29,26,378,-6773,1249,-5141,582,-1535,2697,
2142,7,20,2023,11,29,26,388,-6901,1058,-5695,-818,-176,2660,
2143,7,20,2023,11,29,26,398,-7328,446,-5435,-1833,930,2580,
2144,7,20,2023,11,29,26,408,-7329,-187,-5213,-2203,1379,2452,
2145,7,20,2023,11,29,26,418,-7047,-799,-5064,-1984,1447,2244,
2146,7,20,2023,11,29,26,428,-6309,-1473,-5228,-1313,1551,1967,
2147,7,20,2023,11,29,26,438,-5252,-1539,-5213,-267,1913,1662,
2148,7,20,2023,11,29,26,448,-4584,-925,-4693,645,2838,1226,
2149,7,20,2023,11,29,26,458,-4690,945,-2396,1031,4079,635,
2150,7,20,2023,11,29,26,468,-23183,15830,18921,-4622,4250,-2565,
2151,7,20,2023,11,29,26,478,-15550,-2848,7230,-13365,-7614,-1462,
2152,7,20,2023,11,29,26,488,-1185,-10709,-3237,-8466,-13334,-352,
2153,7,20,2023,11,29,26,498,-5558,101,4575,-430,-12266,-645,
2154,7,20,2023,11,29,26,508,714,7557,6477,9,-12322,-978,
2155,7,20,2023,11,29,26,518,2666,-1839,6869,-2922,-10892,-1096,
2156,7,20,2023,11,29,26,528,-1143,1598,3961,-1337,-9680,-1856,
2157,7,20,2023,11,29,26,538,-4091,1196,2758,-1751,-8353,-1932,
2158,7,20,2023,11,29,26,548,-1966,-441,4157,-2234,-7316,-1778,
2159,7,20,2023,11,29,26,558,-367,704,4551,-2323,-6343,-1720,
2160,7,20,2023,11,29,26,568,-1364,-863,4064,-2213,-5034,-1614,
2161,7,20,2023,11,29,26,578,-1889,-1643,4152,-1618,-3615,-1268,
2162,7,20,2023,11,29,26,588,-1534,-648,4290,-1163,-2483,-782,
2163,7,20,2023,11,29,26,598,-1488,163,4228,-959,-1589,-519,
2164,7,20,2023,11,29,26,608,-1726,135,4084,-885,-961,-550,
2165,7,20,2023,11,29,26,618,-1951,138,3846,-826,-578,-618,
2166,7,20,2023,11,29,26,628,-1959,445,3732,-831,-403,-602,
2167,7,20,2023,11,29,26,638,-2146,528,3673,-891,-360,-644,
2168,7,20,2023,11,29,26,648,-2261,261,3645,-922,-372,-748,
